#time,accel_x,accel_y,accel_z
1201.773875,-296.082377,888.247130,-78294.959896
1201.776369,-592.164754,1628.453072,-79673.931792
1201.778863,592.164754,2664.741391,-80593.246390
1201.781357,148.041188,1480.411884,-80899.684589
1201.783851,-740.205942,1776.494261,-78294.959896
1201.786345,-888.247130,444.123565,-77528.864398
1201.788839,-296.082377,-296.082377,-77375.645298
1201.791333,-444.123565,1036.288319,-78754.617194
1201.793827,0.000000,1924.535449,-80133.589091
1201.796321,148.041188,2516.700203,-81052.903688
1201.798814,-592.164754,2516.700203,-80746.465489
1201.801308,-296.082377,1184.329507,-78141.740796
1201.803802,592.164754,1776.494261,-76762.768900
1201.806296,-296.082377,-4885.359217,-78141.740796
1201.808790,3997.112087,-888.247130,-77682.083497
1201.811284,3849.070898,1036.288319,-80133.589091
1201.813778,2516.700203,1184.329507,-81052.903688
1201.816272,-148.041188,296.082377,-80440.027290
1201.818766,6217.729913,-6513.812290,-77682.083497
1201.821260,1924.535449,148.041188,-76762.768900
1201.823645,3552.988522,-3108.864956,-77375.645298
1201.826030,2516.700203,4293.194464,-79061.055394
1201.828415,1036.288319,-8586.388927,-81818.999186
1201.830800,4145.153275,5921.647536,-77835.302597
1201.833186,-1480.411884,-1776.494261,-82125.437386
1201.835571,2960.823768,5773.606348,-78754.617194
1201.837956,-6661.853478,7402.059420,-76149.892501
1201.840341,-3552.988522,592.164754,-80133.589091
1201.842726,-1924.535449,7846.182985,-76456.330700
1201.845111,-2516.700203,-2516.700203,-81359.341888
1201.847497,148.041188,592.164754,-79214.274493
1201.849882,-1924.535449,10362.883188,-78141.740796
1201.852267,-3552.988522,1924.535449,-81512.560987
1201.854652,-3997.112087,5921.647536,-75537.016103
1201.857037,-444.123565,-148.041188,-79827.150892
1201.859422,-2664.741391,-1776.494261,-78754.617194
1201.861808,-4737.318029,6661.853478,-76915.987999
1201.864193,-1628.453072,2812.782580,-78601.398095
1201.866578,148.041188,-1924.535449,-81665.780087
1201.868963,-888.247130,10807.006753,-77069.207099
1201.871348,-3404.947333,1480.411884,-81052.903688
1201.873733,740.205942,1332.370696,-77835.302597
1201.876119,-4145.153275,0.000000,-77682.083497
1201.878504,-5625.565159,1184.329507,-77682.083497
1201.880889,-5181.441594,13027.624579,-75843.454302
1201.883274,-2960.823768,5477.523971,-79980.369991
1201.885659,-296.082377,1036.288319,-80899.684589
1201.888044,-444.123565,-444.123565,-78907.836294
1201.890429,-1924.535449,2960.823768,-78141.740796
1201.892815,-2220.617826,7550.100608,-76609.549800
1201.895200,-5921.647536,5773.606348,-78601.398095
1201.897585,-1924.535449,-888.247130,-79214.274493
1201.899970,-3701.029710,9030.512492,-79827.150892
1201.902355,-5921.647536,-3552.988522,-82125.437386
1201.904740,-1480.411884,15840.407159,-75230.577904
1201.907126,-1480.411884,-3404.947333,-80593.246390
1201.909511,3849.070898,1628.453072,-74617.701505
1201.911896,3256.906145,5033.400406,-76303.111601
1201.914281,0.000000,-8734.430116,-83504.409282
1201.916666,740.205942,12139.377449,-76762.768900
1201.919124,-4737.318029,2960.823768,-81512.560987
1201.921583,1480.411884,1036.288319,-77375.645298
1201.924041,2960.823768,-1628.453072,-76303.111601
1201.926499,6513.812290,-14656.077652,-81206.122788
1201.928957,4885.359217,9326.594869,-74924.139704
1201.931415,-444.123565,-4885.359217,-85036.600278
1201.933873,-1332.370696,3552.988522,-77835.302597
1201.936331,1924.535449,3108.864956,-80746.465489
1201.938789,-1036.288319,-7994.224174,-80440.027290
1201.941248,7550.100608,0.000000,-74311.263306
1201.943706,-3701.029710,-296.082377,-76456.330700
1201.946164,2220.617826,-148.041188,-78601.398095
1201.948622,888.247130,4737.318029,-80440.027290
1201.951080,148.041188,-5477.523971,-83810.847481
1201.953538,6957.935855,-2960.823768,-78754.617194
1201.955996,2368.659014,-296.082377,-77375.645298
1201.958454,-444.123565,-148.041188,-75690.235202
1201.960912,-148.041188,4293.194464,-75077.358804
1201.963371,-1480.411884,-888.247130,-80286.808190
1201.965829,148.041188,3256.906145,-80286.808190
1201.968287,2664.741391,148.041188,-82891.532884
1201.970745,3256.906145,-1480.411884,-78294.959896
1201.973203,2516.700203,-2960.823768,-77069.207099
1201.975661,2664.741391,-1628.453072,-74924.139704
1201.978119,3997.112087,-6069.688724,-78907.836294
1201.980577,2960.823768,592.164754,-79673.931792
1201.983036,888.247130,5033.400406,-81359.341888
1201.985494,-444.123565,888.247130,-82125.437386
1201.987952,6365.771101,-2812.782580,-79214.274493
1201.990410,2220.617826,-3256.906145,-75383.797003
1201.992868,1776.494261,-740.205942,-76149.892501
1201.995326,296.082377,-3256.906145,-77375.645298
1201.997784,4885.359217,8438.347739,-79980.369991
1202.000242,1776.494261,-6513.812290,-85649.476676
1202.002701,3552.988522,2960.823768,-78754.617194
1202.005159,-4293.194464,2812.782580,-76609.549800
1202.007617,-740.205942,-8734.430116,-77528.864398
1202.010075,-1776.494261,16284.530724,-72012.976812
1202.012533,-4145.153275,-2960.823768,-84423.723880
1202.014991,2220.617826,5773.606348,-79673.931792
1202.017500,-1480.411884,9030.512492,-78294.959896
1202.020008,-296.082377,-3404.947333,-80593.246390
1202.022517,-4589.276840,11695.253884,-73085.510509
1202.025025,-3108.864956,-2220.617826,-80746.465489
1202.027534,-2220.617826,3552.988522,-77528.864398
1202.030042,-3404.947333,2664.741391,-80746.465489
1202.032551,-2516.700203,6513.812290,-78141.740796
1202.035059,-2664.741391,7846.182985,-78294.959896
1202.037568,-2368.659014,740.205942,-79827.150892
1202.040076,-444.123565,6957.935855,-77835.302597
1202.042585,-6069.688724,2664.741391,-79520.712692
1202.045093,-296.082377,740.205942,-79061.055394
1202.047602,-3701.029710,8290.306550,-77375.645298
1202.050110,-7254.018232,1480.411884,-80440.027290
1202.052619,-148.041188,5773.606348,-75843.454302
1202.055127,-2072.576638,296.082377,-79827.150892
1202.057636,-740.205942,5181.441594,-77375.645298
1202.060144,444.123565,3256.906145,-79827.150892
1202.062653,-3256.906145,-1332.370696,-80133.589091
1202.065161,-4441.235652,5329.482782,-78294.959896
1202.067670,-6365.771101,9918.759623,-77528.864398
1202.070178,-4441.235652,3404.947333,-79061.055394
1202.072687,-1628.453072,5921.647536,-76456.330700
1202.075195,-2664.741391,1628.453072,-80286.808190
1202.077704,-1184.329507,2516.700203,-79980.369991
1202.080212,-2516.700203,5921.647536,-79367.493593
1202.082721,-3256.906145,0.000000,-79061.055394
1202.085229,-1480.411884,6661.853478,-75537.016103
1202.087738,-6365.771101,6365.771101,-79980.369991
1202.090246,-148.041188,-1184.329507,-80286.808190
1202.092755,-5477.523971,13027.624579,-78141.740796
1202.095263,-1628.453072,3997.112087,-80440.027290
1202.097772,3256.906145,-1924.535449,-80133.589091
1202.100280,3108.864956,296.082377,-76915.987999
1202.102789,-148.041188,-2664.741391,-80440.027290
1202.105297,1628.453072,6809.894666,-78294.959896
1202.107806,-1924.535449,-2072.576638,-82125.437386
1202.110314,-148.041188,2960.823768,-76762.768900
1202.112822,5181.441594,148.041188,-78448.178995
1202.115331,6069.688724,-7254.018232,-80133.589091
1202.117871,5477.523971,-2664.741391,-78448.178995
1202.120412,2220.617826,-444.123565,-80899.684589
1202.122952,1036.288319,888.247130,-79827.150892
1202.125492,-148.041188,3849.070898,-79980.369991
1202.128033,3404.947333,-5773.606348,-78907.836294
1202.130573,3108.864956,444.123565,-77069.207099
1202.133114,3404.947333,-1332.370696,-78754.617194
1202.135654,888.247130,1036.288319,-77988.521696
1202.138194,3404.947333,-6069.688724,-81052.903688
1202.140735,4145.153275,740.205942,-78754.617194
1202.143275,3701.029710,2664.741391,-81665.780087
1202.145815,2812.782580,-888.247130,-79520.712692
1202.148356,-296.082377,-1480.411884,-77835.302597
1202.150896,740.205942,-1924.535449,-77069.207099
1202.153436,3108.864956,3404.947333,-77835.302597
1202.155977,1924.535449,6513.812290,-79520.712692
1202.158517,2812.782580,-3701.029710,-83504.409282
1202.161058,6217.729913,-4737.318029,-79061.055394
1202.163598,5033.400406,-3701.029710,-77069.207099
1202.166138,2220.617826,-1036.288319,-77528.864398
1202.168679,1332.370696,1776.494261,-76762.768900
1202.171219,3701.029710,-7254.018232,-81818.999186
1202.173759,2664.741391,4589.276840,-79214.274493
1202.176300,2072.576638,296.082377,-80133.589091
1202.178840,1036.288319,-2072.576638,-78448.178995
1202.181380,7994.224174,444.123565,-76456.330700
1202.183921,-5625.565159,-1184.329507,-76915.987999
1202.186461,6809.894666,-8438.347739,-80440.027290
1202.189002,-1332.370696,8734.430116,-79520.712692
1202.191542,-888.247130,-8586.388927,-84576.942979
1202.194082,-444.123565,15840.407159,-73085.510509
1202.196623,-7550.100608,-2812.782580,-81972.218286
1202.199163,1924.535449,3997.112087,-75077.358804
1202.201703,4589.276840,10807.006753,-73851.606007
1202.204244,-1480.411884,-7550.100608,-85496.257577
1202.206784,-2220.617826,7402.059420,-78141.740796
1202.209324,-5773.606348,9474.636058,-77682.083497
1202.211865,-2220.617826,4885.359217,-79061.055394
1202.214405,0.000000,-888.247130,-77069.207099
1202.216946,-2812.782580,1332.370696,-79980.369991
1202.219508,-3552.988522,11103.089130,-77375.645298
1202.222070,-3404.947333,592.164754,-80746.465489
1202.224633,-2664.741391,8734.430116,-75537.016103
1202.227195,-2220.617826,-3701.029710,-81359.341888
1202.229757,444.123565,-3701.029710,-80746.465489
1202.232320,-888.247130,10510.924376,-77375.645298
1202.234882,-4145.153275,0.000000,-83044.751983
1202.237444,-7550.100608,6809.894666,-75383.797003
1202.240007,0.000000,2960.823768,-78601.398095
1202.242569,2220.617826,-3997.112087,-79367.493593
1202.245131,3849.070898,5625.565159,-76762.768900
1202.247694,-4885.359217,3108.864956,-80440.027290
1202.250256,-5033.400406,10362.883188,-78294.959896
1202.252819,-6661.853478,5477.523971,-80899.684589
1202.255381,-2072.576638,-3849.070898,-80899.684589
1202.257943,296.082377,3552.988522,-74924.139704
1202.260506,-2516.700203,10066.800811,-77528.864398
1202.263068,-3997.112087,-1924.535449,-81052.903688
1202.265630,-592.164754,8438.347739,-78141.740796
1202.268193,-7105.977043,3404.947333,-81512.560987
1202.270755,4145.153275,1036.288319,-78907.836294
1202.273317,-8290.306550,12583.501014,-77528.864398
1202.275880,-1776.494261,-6809.894666,-81665.780087
1202.278442,-4737.318029,17764.942608,-72012.976812
1202.281004,444.123565,-1036.288319,-80440.027290
1202.283567,3552.988522,-4293.194464,-81359.341888
1202.286129,3108.864956,12435.459826,-76762.768900
1202.288692,-3997.112087,-7254.018232,-83964.066581
1202.291254,4589.276840,4589.276840,-76303.111601
1202.293816,-4441.235652,-1332.370696,-77988.521696
1202.296379,3849.070898,-3849.070898,-79367.493593
1202.298941,4885.359217,4145.153275,-75690.235202
1202.301503,6365.771101,-7550.100608,-82585.094684
1202.304066,-444.123565,2960.823768,-77222.426198
1202.306628,1776.494261,-3849.070898,-80440.027290
1202.309190,2516.700203,1332.370696,-76609.549800
1202.311753,3997.112087,-3108.864956,-81512.560987
1202.314315,888.247130,-888.247130,-77835.302597
1202.316877,2812.782580,2516.700203,-78294.959896
1202.319440,1332.370696,-5773.606348,-80286.808190
1202.322015,-2220.617826,5625.565159,-75383.797003
1202.324589,4293.194464,-5773.606348,-82278.656485
1202.327164,4589.276840,-2072.576638,-78754.617194
1202.329739,444.123565,9326.594869,-78601.398095
1202.332313,-3108.864956,-4293.194464,-81818.999186
1202.334888,1332.370696,2368.659014,-74770.920605
1202.337463,3701.029710,-1036.288319,-78601.398095
1202.340038,2220.617826,-1036.288319,-80286.808190
1202.342612,1480.411884,-296.082377,-79520.712692
1202.345187,3701.029710,6069.688724,-78294.959896
1202.347762,3552.988522,-7254.018232,-81665.780087
1202.350337,2516.700203,-1036.288319,-76149.892501
1202.352911,3552.988522,-1776.494261,-76303.111601
1202.355486,1480.411884,-4885.359217,-79367.493593
1202.358061,888.247130,3552.988522,-78294.959896
1202.360636,-592.164754,-2072.576638,-80440.027290
1202.363210,1480.411884,-296.082377,-80593.246390
1202.365785,7105.977043,2812.782580,-77222.426198
1202.368360,-888.247130,-8142.265362,-79980.369991
1202.370935,5329.482782,-3997.112087,-75996.673402
1202.373509,-3108.864956,7254.018232,-77835.302597
1202.376084,-1332.370696,-6809.894666,-82891.532884
1202.378659,-2220.617826,11547.212695,-75537.016103
1202.381233,-1628.453072,-6661.853478,-85496.257577
1202.383808,1036.288319,12879.583391,-74311.263306
1202.386383,-296.082377,6217.729913,-79673.931792
1202.388958,-740.205942,-10658.965565,-80286.808190
1202.391532,-2960.823768,7846.182985,-76915.987999
1202.394107,-4441.235652,3849.070898,-79520.712692
1202.396682,0.000000,7550.100608,-79980.369991
1202.399257,-1184.329507,7254.018232,-78601.398095
1202.401831,-3256.906145,-148.041188,-80593.246390
1202.404406,-4293.194464,7402.059420,-74617.701505
1202.406981,-740.205942,-148.041188,-79367.493593
1202.409556,-5181.441594,8438.347739,-76915.987999
1202.412130,592.164754,888.247130,-83044.751983
1202.414705,-4293.194464,7402.059420,-79214.274493
1202.417280,-2368.659014,444.123565,-79827.150892
1202.419855,-6957.935855,5625.565159,-76456.330700
1202.422429,-1628.453072,4145.153275,-76303.111601
1202.425013,0.000000,0.000000,-78754.617194
1202.427596,2072.576638,1924.535449,-79673.931792
1202.430180,-2368.659014,2664.741391,-80440.027290
1202.432764,-2812.782580,10362.883188,-78601.398095
1202.435347,-6069.688724,3108.864956,-79673.931792
1202.437931,740.205942,-888.247130,-78448.178995
1202.440514,-4589.276840,7846.182985,-75230.577904
1202.443098,-2516.700203,4737.318029,-80133.589091
1202.445681,-3404.947333,8586.388927,-78601.398095
1202.448265,-4441.235652,592.164754,-81052.903688
1202.450848,-1924.535449,7846.182985,-77835.302597
1202.453432,0.000000,-1184.329507,-80440.027290
1202.456016,-1924.535449,7994.224174,-77835.302597
1202.458599,-6365.771101,1036.288319,-78601.398095
1202.461183,-5625.565159,5329.482782,-77222.426198
1202.463766,-1036.288319,2072.576638,-78601.398095
1202.466350,888.247130,6513.812290,-80133.589091
1202.468933,3256.906145,148.041188,-80746.465489
1202.471517,1332.370696,-5477.523971,-79980.369991
1202.474100,5181.441594,2812.782580,-77222.426198
1202.476684,-5625.565159,-1924.535449,-78601.398095
1202.479268,4441.235652,2664.741391,-77528.864398
1202.481851,2368.659014,1332.370696,-78294.959896
1202.484435,5329.482782,-9918.759623,-82278.656485
1202.487018,2072.576638,5773.606348,-75843.454302
1202.489602,148.041188,-5329.482782,-81359.341888
1202.492185,2516.700203,3552.988522,-74464.482406
1202.494769,2812.782580,-6069.688724,-81972.218286
1202.497352,2664.741391,-2220.617826,-79520.712692
1202.499936,2220.617826,-592.164754,-79214.274493
1202.502520,0.000000,1184.329507,-78754.617194
1202.505103,-4885.359217,592.164754,-78448.178995
1202.507687,5773.606348,-3849.070898,-78907.836294
1202.510270,5181.441594,-4293.194464,-78294.959896
1202.512854,5181.441594,2664.741391,-81512.560987
1202.515437,-2368.659014,3108.864956,-80593.246390
1202.518021,-1924.535449,-1184.329507,-79827.150892
1202.520604,1036.288319,296.082377,-76149.892501
1202.523188,7254.018232,-4441.235652,-77069.207099
1202.525772,4737.318029,-296.082377,-78141.740796
1202.528279,5181.441594,2220.617826,-78601.398095
1202.530786,2368.659014,-1924.535449,-82431.875585
1202.533294,2220.617826,-4589.276840,-80593.246390
1202.535801,3552.988522,-1332.370696,-77222.426198
1202.538309,-1184.329507,444.123565,-77682.083497
1202.540816,1924.535449,296.082377,-77682.083497
1202.543324,-1036.288319,740.205942,-79214.274493
1202.545831,7402.059420,-5921.647536,-80133.589091
1202.548339,-2220.617826,2072.576638,-78294.959896
1202.550846,6957.935855,-6661.853478,-81359.341888
1202.553354,1332.370696,9622.677246,-76456.330700
1202.555861,-2072.576638,-5921.647536,-80440.027290
1202.558368,-2812.782580,5477.523971,-76303.111601
1202.560876,-4293.194464,8290.306550,-78141.740796
1202.563383,444.123565,-4293.194464,-80593.246390
1202.565891,1480.411884,8290.306550,-74004.825107
1202.568398,-5033.400406,1480.411884,-81052.903688
1202.570906,0.000000,1628.453072,-79980.369991
1202.573413,-3849.070898,8882.471304,-76149.892501
1202.575921,-1924.535449,888.247130,-81052.903688
1202.578428,-4145.153275,9622.677246,-75843.454302
1202.580936,-3404.947333,-444.123565,-80746.465489
1202.583443,-4441.235652,5477.523971,-76456.330700
1202.585950,-444.123565,7254.018232,-78601.398095
1202.588458,-5181.441594,6513.812290,-80593.246390
1202.590965,1924.535449,-2072.576638,-79520.712692
1202.593473,296.082377,6217.729913,-77835.302597
1202.595980,-3997.112087,5773.606348,-79367.493593
1202.598488,-4441.235652,2368.659014,-78601.398095
1202.600995,296.082377,296.082377,-77682.083497
1202.603503,-888.247130,1924.535449,-77988.521696
1202.606010,-148.041188,1332.370696,-80133.589091
1202.608518,-1628.453072,7994.224174,-77069.207099
1202.611025,-2812.782580,2368.659014,-81512.560987
1202.613532,-5033.400406,4441.235652,-78601.398095
1202.616040,-5477.523971,7105.977043,-77988.521696
1202.618547,-4885.359217,1776.494261,-76915.987999
1202.621055,296.082377,-444.123565,-78294.959896
1202.623562,-2516.700203,8290.306550,-77835.302597
1202.626070,-1036.288319,9326.594869,-80899.684589
1202.628603,-6069.688724,148.041188,-81818.999186
1202.631137,-2664.741391,8142.265362,-76456.330700
1202.633670,-7846.182985,8882.471304,-74924.139704
1202.636204,-888.247130,-6957.935855,-81206.122788
1202.638738,-1184.329507,8734.430116,-75843.454302
1202.641271,1924.535449,-1036.288319,-83044.751983
1202.643805,1628.453072,4589.276840,-77375.645298
1202.646339,-1480.411884,3108.864956,-79827.150892
1202.648872,740.205942,-8882.471304,-79980.369991
1202.651406,1036.288319,9030.512492,-74770.920605
1202.653940,3552.988522,-5033.400406,-81052.903688
1202.656473,2516.700203,148.041188,-77528.864398
1202.659007,1184.329507,-444.123565,-79061.055394
1202.661541,4441.235652,-3997.112087,-79214.274493
1202.664074,1184.329507,9326.594869,-76149.892501
1202.666608,3404.947333,-9474.636058,-83810.847481
1202.669142,2960.823768,592.164754,-76609.549800
1202.671675,2368.659014,148.041188,-79980.369991
1202.674209,-4589.276840,-148.041188,-77988.521696
1202.676742,6069.688724,-2072.576638,-77222.426198
1202.679276,1332.370696,-2220.617826,-79367.493593
1202.681810,2516.700203,3108.864956,-79673.931792
1202.684343,2960.823768,-2072.576638,-81972.218286
1202.686877,-740.205942,3256.906145,-78907.836294
1202.689411,1776.494261,-1776.494261,-79980.369991
1202.691944,0.000000,-1628.453072,-77528.864398
1202.694478,2960.823768,-5625.565159,-78141.740796
1202.697012,6957.935855,-1332.370696,-79367.493593
1202.699545,1480.411884,1776.494261,-79520.712692
1202.702079,3256.906145,-5625.565159,-81206.122788
1202.704613,4589.276840,2072.576638,-78141.740796
1202.707146,4441.235652,-2812.782580,-80440.027290
1202.709699,2516.700203,1628.453072,-77528.864398
1202.712252,1480.411884,-1628.453072,-76149.892501
1202.714805,4145.153275,148.041188,-78601.398095
1202.717358,-2664.741391,-4589.276840,-80286.808190
1202.719910,8142.265362,-3552.988522,-79367.493593
1202.722463,-2368.659014,11103.089130,-79214.274493
1202.725016,6217.729913,-9030.512492,-83964.066581
1202.727569,-4293.194464,11695.253884,-73238.729609
1202.730122,-2960.823768,-13471.748144,-83197.971083
1202.732675,296.082377,13175.665768,-72932.291410
1202.735227,-2368.659014,9770.718434,-80746.465489
1202.737780,-2368.659014,-9770.718434,-83504.409282
1202.740333,-1184.329507,8142.265362,-76303.111601
1202.742886,-3997.112087,5477.523971,-77835.302597
1202.745439,-2516.700203,1628.453072,-79980.369991
1202.747992,-2072.576638,5773.606348,-76303.111601
1202.750545,-4589.276840,0.000000,-81052.903688
1202.753097,-2516.700203,6217.729913,-79520.712692
1202.755650,-5625.565159,5477.523971,-79061.055394
1202.758203,-740.205942,2220.617826,-78448.178995
1202.760756,-1480.411884,5033.400406,-78448.178995
1202.763309,-1332.370696,2516.700203,-79980.369991
1202.765862,-3256.906145,6365.771101,-77682.083497
1202.768414,-5773.606348,2960.823768,-79980.369991
1202.770967,-1776.494261,6069.688724,-77375.645298
1202.773520,444.123565,-148.041188,-80593.246390
1202.776073,296.082377,-1776.494261,-79214.274493
1202.778626,-444.123565,7254.018232,-77835.302597
1202.781179,-6513.812290,10510.924376,-78754.617194
1202.783731,-5477.523971,4145.153275,-79673.931792
1202.786284,-1332.370696,1480.411884,-79061.055394
1202.788837,-2960.823768,3849.070898,-78448.178995
1202.791390,-2220.617826,5477.523971,-78141.740796
1202.793943,-5033.400406,6809.894666,-78448.178995
1202.796496,-3849.070898,2516.700203,-78601.398095
1202.799049,-3256.906145,11399.171507,-78601.398095
1202.801601,-3552.988522,-2664.741391,-82278.656485
1202.804154,-1036.288319,7402.059420,-76609.549800
1202.806707,-740.205942,-2664.741391,-79367.493593
1202.809260,1924.535449,5033.400406,-76915.987999
1202.811825,-1036.288319,7846.182985,-77528.864398
1202.814390,-444.123565,-8734.430116,-81052.903688
1202.816955,2220.617826,7698.141797,-77528.864398
1202.819520,2516.700203,-6365.771101,-79214.274493
1202.822085,5625.565159,-148.041188,-79061.055394
1202.824650,2368.659014,3404.947333,-74464.482406
1202.827215,1332.370696,-4145.153275,-79520.712692
1202.829780,5033.400406,-1924.535449,-77682.083497
1202.832345,2220.617826,-8734.430116,-82278.656485
1202.834910,1332.370696,9770.718434,-76149.892501
1202.837475,2664.741391,-3701.029710,-82891.532884
1202.840040,2220.617826,-1924.535449,-77069.207099
1202.842605,2220.617826,-592.164754,-76915.987999
1202.845170,-2368.659014,-1184.329507,-80440.027290
1202.847735,3849.070898,-592.164754,-79214.274493
1202.850300,2812.782580,1036.288319,-78907.836294
1202.852865,296.082377,1332.370696,-79367.493593
1202.855430,1036.288319,-592.164754,-78754.617194
1202.857995,1036.288319,3404.947333,-78601.398095
1202.860560,-592.164754,-2516.700203,-80899.684589
1202.863125,3552.988522,-3552.988522,-80593.246390
1202.865690,2516.700203,-740.205942,-77069.207099
1202.868255,5329.482782,-2072.576638,-78448.178995
1202.870820,7105.977043,-5329.482782,-78294.959896
1202.873385,4885.359217,-4589.276840,-78907.836294
1202.875950,2368.659014,2072.576638,-79673.931792
1202.878515,6661.853478,-1776.494261,-81972.218286
1202.881080,-2220.617826,-1480.411884,-78754.617194
1202.883645,3404.947333,-3849.070898,-76303.111601
1202.886210,-1924.535449,1036.288319,-75843.454302
1202.888775,5477.523971,-7550.100608,-80593.246390
1202.891340,888.247130,11399.171507,-78754.617194
1202.893905,296.082377,-8586.388927,-84270.504780
1202.896470,-2960.823768,9030.512492,-75690.235202
1202.899035,-4737.318029,0.000000,-81052.903688
1202.901600,-2960.823768,-6661.853478,-79827.150892
1202.904165,592.164754,14804.118840,-73238.729609
1202.906730,-3256.906145,-4145.153275,-83810.847481
1202.909295,-1480.411884,1480.411884,-79367.493593
1202.911860,-3849.070898,7698.141797,-77528.864398
1202.914434,-4885.359217,4293.194464,-81665.780087
1202.917009,1332.370696,5181.441594,-76456.330700
1202.919583,-3404.947333,6513.812290,-79673.931792
1202.922157,-3256.906145,0.000000,-78141.740796
1202.924731,-3849.070898,4589.276840,-77528.864398
1202.927305,-2220.617826,8142.265362,-78601.398095
1202.929879,-2664.741391,3701.029710,-81818.999186
1202.932453,-1628.453072,0.000000,-81359.341888
1202.935027,740.205942,8586.388927,-76456.330700
1202.937601,-4145.153275,5033.400406,-80133.589091
1202.940175,-740.205942,-592.164754,-77528.864398
1202.942749,888.247130,-4145.153275,-77682.083497
1202.945323,-444.123565,6365.771101,-76762.768900
1202.947897,-7698.141797,6069.688724,-81359.341888
1202.950471,-5329.482782,9326.594869,-79214.274493
1202.953045,-3849.070898,6217.729913,-80440.027290
1202.955619,-5773.606348,-2072.576638,-80286.808190
1202.958193,-2220.617826,4441.235652,-75230.577904
1202.960767,148.041188,6661.853478,-76915.987999
1202.963341,-5773.606348,-1036.288319,-80133.589091
1202.965915,-2812.782580,10066.800811,-76456.330700
1202.968489,-10066.800811,5625.565159,-81512.560987
1202.971063,2960.823768,148.041188,-83964.066581
1202.973637,1776.494261,5477.523971,-77069.207099
1202.976211,888.247130,-1480.411884,-78754.617194
1202.978785,-4145.153275,8586.388927,-72625.853210
1202.981359,1332.370696,-10807.006753,-82278.656485
1202.983933,6513.812290,2072.576638,-78294.959896
1202.986507,296.082377,5625.565159,-81359.341888
1202.989081,2072.576638,-4293.194464,-81818.999186
1202.991655,3256.906145,5181.441594,-74924.139704
1202.994229,4293.194464,-10214.842000,-77835.302597
1202.996803,444.123565,-4293.194464,-75230.577904
1202.999377,5033.400406,-1480.411884,-78754.617194
1203.001951,3404.947333,444.123565,-80746.465489
1203.004525,1924.535449,4441.235652,-81972.218286
1203.007099,888.247130,-2664.741391,-81665.780087
1203.009673,740.205942,-592.164754,-76609.549800
1203.012247,3997.112087,-3404.947333,-75690.235202
1203.014821,3404.947333,-4293.194464,-78141.740796
1203.017401,0.000000,-148.041188,-79367.493593
1203.019982,444.123565,1628.453072,-80899.684589
1203.022563,740.205942,4885.359217,-80133.589091
1203.025143,1332.370696,-740.205942,-80899.684589
1203.027724,1480.411884,1036.288319,-77375.645298
1203.030305,3552.988522,-6957.935855,-77375.645298
1203.032885,4293.194464,-3404.947333,-75843.454302
1203.035466,3256.906145,-592.164754,-78907.836294
1203.038047,3701.029710,-3108.864956,-81206.122788
1203.040628,740.205942,-5033.400406,-81818.999186
1203.043208,5181.441594,1924.535449,-78754.617194
1203.045789,2368.659014,444.123565,-79520.712692
1203.048370,1924.535449,-13471.748144,-78907.836294
1203.050950,8586.388927,6217.729913,-73238.729609
1203.053531,-1332.370696,-5477.523971,-80746.465489
1203.056112,6365.771101,5329.482782,-78601.398095
1203.058692,-3997.112087,3701.029710,-82278.656485
1203.061273,888.247130,-7698.141797,-83964.066581
1203.063854,-4293.194464,18801.230927,-73238.729609
1203.066434,-6365.771101,-1480.411884,-81206.122788
1203.069015,444.123565,-888.247130,-74311.263306
1203.071596,-2368.659014,7402.059420,-78141.740796
1203.074176,-148.041188,-2960.823768,-85343.038477
1203.076757,-1776.494261,10807.006753,-78754.617194
1203.079338,-6809.894666,3552.988522,-82125.437386
1203.081918,1628.453072,6957.935855,-76609.549800
1203.084499,-2220.617826,-1776.494261,-77988.521696
1203.087080,-3849.070898,1332.370696,-76609.549800
1203.089660,-3404.947333,13767.830521,-75996.673402
1203.092241,-2368.659014,-444.123565,-83197.971083
1203.094822,-1924.535449,1480.411884,-81052.903688
1203.097402,-1332.370696,6809.894666,-78601.398095
1203.099983,-2516.700203,1480.411884,-78294.959896
1203.102564,2072.576638,4589.276840,-77375.645298
1203.105144,-2664.741391,-888.247130,-78448.178995
1203.107725,-2960.823768,-148.041188,-78754.617194
1203.110306,-1036.288319,6661.853478,-78754.617194
1203.112886,-3404.947333,5181.441594,-80899.684589
1203.115467,-2812.782580,5773.606348,-80440.027290
1203.118048,-3849.070898,10362.883188,-78601.398095
1203.120632,-4885.359217,3108.864956,-79214.274493
1203.123216,0.000000,2220.617826,-77835.302597
1203.125799,-5773.606348,4293.194464,-76762.768900
1203.128383,740.205942,1184.329507,-80133.589091
1203.130967,-10807.006753,16136.489536,-78601.398095
1203.133551,2516.700203,-4441.235652,-86109.133975
1203.136135,-3256.906145,5921.647536,-75843.454302
1203.138719,2516.700203,-1924.535449,-78907.836294
1203.141303,-888.247130,4441.235652,-74770.920605
1203.143887,2664.741391,-3849.070898,-78907.836294
1203.146470,-1332.370696,3108.864956,-78141.740796
1203.149054,-2220.617826,5773.606348,-82431.875585
1203.151638,5625.565159,-3108.864956,-81052.903688
1203.154222,3404.947333,148.041188,-77069.207099
1203.156806,2812.782580,-8882.471304,-77528.864398
1203.159390,2072.576638,1628.453072,-74004.825107
1203.161974,0.000000,-5033.400406,-80286.808190
1203.164558,4293.194464,2368.659014,-79367.493593
1203.167142,3552.988522,2220.617826,-80746.465489
1203.169725,2072.576638,-6661.853478,-81512.560987
1203.172309,1776.494261,5625.565159,-75077.358804
1203.174893,148.041188,-2220.617826,-78141.740796
1203.177477,2072.576638,-7105.977043,-79367.493593
1203.180061,2220.617826,3256.906145,-76915.987999
1203.182645,-2072.576638,3701.029710,-82125.437386
1203.185229,2664.741391,-2072.576638,-81206.122788
1203.187813,4145.153275,-2812.782580,-79673.931792
1203.190396,2516.700203,-1628.453072,-78141.740796
1203.192980,2664.741391,-1776.494261,-77835.302597
1203.195564,5477.523971,-2516.700203,-76915.987999
1203.198148,5625.565159,-4885.359217,-78448.178995
1203.200732,444.123565,-1332.370696,-81052.903688
1203.203316,2072.576638,5033.400406,-77988.521696
1203.205900,2516.700203,3404.947333,-81206.122788
1203.208484,2368.659014,-12139.377449,-78907.836294
1203.211068,6809.894666,2220.617826,-72625.853210
1203.213651,1776.494261,-6957.935855,-79061.055394
1203.216235,740.205942,11251.130318,-77375.645298
1203.218819,-2072.576638,-4293.194464,-83657.628382
1203.221403,148.041188,3256.906145,-76762.768900
1203.223989,-1184.329507,6513.812290,-79214.274493
1203.226575,-6809.894666,-3997.112087,-79214.274493
1203.229161,1480.411884,7994.224174,-73085.510509
1203.231748,-5773.606348,5625.565159,-79520.712692
1203.234334,-4145.153275,-2664.741391,-83044.751983
1203.236920,-2664.741391,9770.718434,-75690.235202
1203.239506,-1332.370696,2368.659014,-83351.190182
1203.242092,-3701.029710,6957.935855,-76456.330700
1203.244678,-3849.070898,1924.535449,-79673.931792
1203.247264,-2072.576638,2664.741391,-76762.768900
1203.249851,-3256.906145,6513.812290,-77528.864398
1203.252437,-2220.617826,1628.453072,-79214.274493
1203.255023,-1776.494261,7994.224174,-79214.274493
1203.257609,-1924.535449,4589.276840,-80286.808190
1203.260195,-148.041188,3108.864956,-79367.493593
1203.262781,-3108.864956,-296.082377,-78294.959896
1203.265367,-2072.576638,3108.864956,-75996.673402
1203.267954,0.000000,148.041188,-78601.398095
1203.270540,-4145.153275,5477.523971,-78141.740796
1203.273126,-6661.853478,9622.677246,-79980.369991
1203.275712,-5773.606348,9178.553681,-80286.808190
1203.278298,-3256.906145,4293.194464,-79980.369991
1203.280884,-2960.823768,2812.782580,-77528.864398
1203.283470,-1480.411884,-1480.411884,-77682.083497
1203.286057,-1628.453072,13619.789333,-75230.577904
1203.288643,-8142.265362,4737.318029,-80593.246390
1203.291229,-4145.153275,6809.894666,-79827.150892
1203.293815,-740.205942,1480.411884,-80133.589091
1203.296401,3108.864956,-3256.906145,-80593.246390
1203.298987,1036.288319,4441.235652,-75537.016103
1203.301573,740.205942,1480.411884,-77835.302597
1203.304160,-592.164754,-1036.288319,-78294.959896
1203.306746,-1332.370696,-6069.688724,-78907.836294
1203.309332,2220.617826,10362.883188,-78601.398095
1203.311918,3701.029710,2220.617826,-79520.712692
1203.314504,6809.894666,-10362.883188,-81052.903688
1203.317090,888.247130,1628.453072,-72932.291410
1203.319676,-148.041188,-7402.059420,-81052.903688
1203.322262,1924.535449,4145.153275,-76303.111601
1203.324849,4441.235652,-5773.606348,-82278.656485
1203.327437,5329.482782,-1036.288319,-80440.027290
1203.330025,296.082377,4441.235652,-78754.617194
1203.332613,-1184.329507,-3997.112087,-80133.589091
1203.335201,3108.864956,2516.700203,-73085.510509
1203.337789,592.164754,-3256.906145,-78448.178995
1203.340377,1036.288319,3256.906145,-79367.493593
1203.342965,592.164754,-2960.823768,-82431.875585
1203.345554,3108.864956,2368.659014,-78141.740796
1203.348142,0.000000,1480.411884,-78754.617194
1203.350730,4145.153275,-5773.606348,-77988.521696
1203.353318,6365.771101,-4441.235652,-75077.358804
1203.355906,6069.688724,-1184.329507,-78907.836294
1203.358494,3256.906145,-1628.453072,-81359.341888
1203.361082,1184.329507,-2812.782580,-81206.122788
1203.363670,592.164754,4145.153275,-79061.055394
1203.366258,-1036.288319,-6513.812290,-78601.398095
1203.368847,10362.883188,-5773.606348,-76149.892501
1203.371435,-1628.453072,1184.329507,-76609.549800
1203.374023,4145.153275,2072.576638,-81512.560987
1203.376611,-296.082377,7994.224174,-80593.246390
1203.379199,-1480.411884,-16432.571912,-85649.476676
1203.381787,-1924.535449,19393.395680,-71093.662214
1203.384375,-6069.688724,1036.288319,-81052.903688
1203.386963,1332.370696,1184.329507,-76915.987999
1203.389551,-3997.112087,9326.594869,-75077.358804
1203.392140,-592.164754,1628.453072,-83504.409282
1203.394728,-1776.494261,6365.771101,-80593.246390
1203.397316,-1184.329507,5181.441594,-81359.341888
1203.399904,-2220.617826,888.247130,-79367.493593
1203.402492,-1480.411884,7254.018232,-75537.016103
1203.405080,-7402.059420,5921.647536,-78294.959896
1203.407668,-1924.535449,-740.205942,-79214.274493
1203.410256,-1184.329507,8882.471304,-77222.426198
1203.412844,-1480.411884,1184.329507,-83657.628382
1203.415433,-296.082377,3404.947333,-79520.712692
1203.418021,-1184.329507,1776.494261,-77988.521696
1203.420609,-3256.906145,3849.070898,-76303.111601
1203.423197,-1184.329507,3256.906145,-77988.521696
1203.425785,-5181.441594,1480.411884,-79214.274493
1203.428373,-1776.494261,7698.141797,-79980.369991
1203.430961,-5773.606348,12287.418637,-79980.369991
1203.433549,-7402.059420,3701.029710,-81052.903688
1203.436136,-1036.288319,4589.276840,-76149.892501
1203.438724,-4145.153275,-3997.112087,-78601.398095
1203.441312,-148.041188,10214.842000,-76762.768900
1203.443900,-10066.800811,9770.718434,-79673.931792
1203.446487,-592.164754,1924.535449,-81818.999186
1203.449075,-1036.288319,3404.947333,-78601.398095
1203.451663,3404.947333,-1628.453072,-78754.617194
1203.454251,-2220.617826,7105.977043,-75230.577904
1203.456838,3849.070898,-4441.235652,-79980.369991
1203.459426,1184.329507,3849.070898,-77222.426198
1203.462014,-740.205942,-4885.359217,-83044.751983
1203.464602,3404.947333,3997.112087,-77835.302597
1203.467190,2960.823768,-2960.823768,-80899.684589
1203.469777,6957.935855,-4293.194464,-78907.836294
1203.472365,-444.123565,-2220.617826,-76915.987999
1203.474953,2072.576638,-2664.741391,-79367.493593
1203.477541,3849.070898,2812.782580,-77069.207099
1203.480128,2220.617826,-4145.153275,-82431.875585
1203.482716,3849.070898,-2960.823768,-81206.122788
1203.485304,0.000000,3256.906145,-77988.521696
1203.487892,-296.082377,-4441.235652,-79520.712692
1203.490479,4885.359217,1776.494261,-73851.606007
1203.493067,1924.535449,-148.041188,-79520.712692
1203.495655,1184.329507,-3256.906145,-82738.313784
1203.498243,-1332.370696,0.000000,-79214.274493
1203.500830,2664.741391,5477.523971,-78754.617194
1203.503418,3256.906145,-1924.535449,-77528.864398
1203.506006,4145.153275,-5329.482782,-77835.302597
1203.508594,5181.441594,-3404.947333,-76456.330700
1203.511181,7105.977043,-5773.606348,-80286.808190
1203.513769,148.041188,1184.329507,-80133.589091
1203.516357,-1628.453072,6217.729913,-82738.313784
1203.518945,1924.535449,-9178.553681,-80440.027290
1203.521533,8142.265362,148.041188,-74311.263306
1203.524120,2368.659014,-6217.729913,-78448.178995
1203.526708,5773.606348,3108.864956,-77069.207099
1203.529296,-5477.523971,-2516.700203,-81206.122788
1203.531884,296.082377,-6069.688724,-84423.723880
1203.534471,-6365.771101,22798.343014,-74158.044206
1203.537059,-1184.329507,-7846.182985,-85036.600278
1203.539646,148.041188,2812.782580,-72625.853210
1203.542234,-2368.659014,9326.594869,-77375.645298
1203.544821,-3552.988522,-2516.700203,-81818.999186
1203.547409,-3404.947333,9622.677246,-75537.016103
1203.549996,-2812.782580,4589.276840,-83197.971083
1203.552584,-5921.647536,6957.935855,-80133.589091
1203.555171,-2812.782580,2812.782580,-79980.369991
1203.557759,-5477.523971,1332.370696,-76456.330700
1203.560346,-2664.741391,6809.894666,-75843.454302
1203.562934,-2812.782580,5181.441594,-78754.617194
1203.565521,-5033.400406,1924.535449,-81052.903688
1203.568109,1036.288319,2220.617826,-81818.999186
1203.570696,148.041188,4737.318029,-79673.931792
1203.573284,-888.247130,3701.029710,-77528.864398
1203.575871,-3256.906145,5033.400406,-75077.358804
1203.578459,-3108.864956,2368.659014,-78141.740796
1203.581046,-5033.400406,2664.741391,-78601.398095
1203.583634,-5921.647536,9178.553681,-78754.617194
1203.586221,-6513.812290,13027.624579,-79520.712692
1203.588809,-2960.823768,1036.288319,-80593.246390
1203.591396,-5181.441594,8290.306550,-75690.235202
1203.593984,740.205942,-1036.288319,-78601.398095
1203.596571,-7402.059420,9326.594869,-76915.987999
1203.599158,592.164754,1480.411884,-81818.999186
1203.601746,-5181.441594,2664.741391,-79673.931792
1203.604333,592.164754,1776.494261,-79061.055394
1203.606921,740.205942,6217.729913,-77069.207099
1203.609508,592.164754,-8142.265362,-80746.465489
1203.612096,4589.276840,-296.082377,-75996.673402
1203.614683,296.082377,4885.359217,-79673.931792
1203.617271,3404.947333,-3849.070898,-80440.027290
1203.619858,296.082377,2368.659014,-78294.959896
1203.622446,7402.059420,-10955.047942,-80286.808190
1203.625033,1332.370696,-1184.329507,-77528.864398
1203.627621,1184.329507,296.082377,-78448.178995
1203.630208,2072.576638,2072.576638,-78294.959896
1203.632796,1332.370696,-1628.453072,-79673.931792
1203.635383,4885.359217,-5033.400406,-79214.274493
1203.637969,2960.823768,-1628.453072,-77375.645298
1203.640555,1184.329507,444.123565,-78294.959896
1203.643140,2072.576638,296.082377,-78907.836294
1203.645726,1628.453072,888.247130,-79214.274493
1203.648311,148.041188,740.205942,-80593.246390
1203.650897,2960.823768,-1036.288319,-79367.493593
1203.653482,5625.565159,-4145.153275,-77988.521696
1203.656068,4885.359217,-1480.411884,-76915.987999
1203.658653,3404.947333,-4885.359217,-79061.055394
1203.661239,3701.029710,-592.164754,-78141.740796
1203.663824,2812.782580,-6661.853478,-81359.341888
1203.666410,5625.565159,3256.906145,-78294.959896
1203.668995,1036.288319,-6513.812290,-81052.903688
1203.671581,7402.059420,-4293.194464,-77222.426198
1203.674166,1924.535449,888.247130,-76149.892501
1203.676752,3108.864956,2072.576638,-78907.836294
1203.679337,1036.288319,1036.288319,-79214.274493
1203.681923,-444.123565,-9178.553681,-83964.066581
1203.684508,-4293.194464,20429.683999,-77222.426198
1203.687094,-6365.771101,-2812.782580,-82431.875585
1203.689680,296.082377,3849.070898,-72625.853210
1203.692265,-1036.288319,3997.112087,-75996.673402
1203.694851,-148.041188,-1332.370696,-83197.971083
1203.697436,-3552.988522,9178.553681,-79214.274493
1203.700022,-296.082377,7402.059420,-82585.094684
1203.702607,-8734.430116,3256.906145,-79367.493593
1203.705193,-3404.947333,3108.864956,-76762.768900
1203.707778,-2960.823768,0.000000,-76303.111601
1203.710364,-592.164754,6365.771101,-76456.330700
1203.712949,-3404.947333,6809.894666,-79520.712692
1203.715535,-6365.771101,3849.070898,-80593.246390
1203.718120,-296.082377,2368.659014,-80899.684589
1203.720706,-1036.288319,5625.565159,-77682.083497
1203.723291,444.123565,1924.535449,-77222.426198
1203.725877,-3108.864956,4441.235652,-74311.263306
1203.728462,-6513.812290,2812.782580,-79214.274493
1203.731048,-4885.359217,8290.306550,-79061.055394
1203.733633,-5773.606348,10510.924376,-79980.369991
1203.736219,-1628.453072,2072.576638,-79827.150892
1203.738804,-5477.523971,6217.729913,-77528.864398
1203.741388,-592.164754,3256.906145,-78294.959896
1203.743972,-12287.418637,5921.647536,-76149.892501
1203.746556,740.205942,5625.565159,-78601.398095
1203.749140,-7105.977043,2072.576638,-80286.808190
1203.751724,888.247130,1036.288319,-79980.369991
1203.754308,-4145.153275,11991.336260,-76149.892501
1203.756892,4737.318029,-10066.800811,-82125.437386
1203.759476,4589.276840,4885.359217,-73238.729609
1203.762060,-888.247130,-7105.977043,-82278.656485
1203.764644,5477.523971,1776.494261,-77222.426198
1203.767228,1924.535449,1776.494261,-79980.369991
1203.769812,5181.441594,-2812.782580,-81665.780087
1203.772396,2072.576638,-2072.576638,-76762.768900
1203.774980,2664.741391,-5773.606348,-79367.493593
1203.777564,1628.453072,1332.370696,-75690.235202
1203.780148,5773.606348,-1480.411884,-80899.684589
1203.782732,1036.288319,-2664.741391,-81512.560987
1203.785316,3108.864956,-444.123565,-79980.369991
1203.787900,740.205942,1184.329507,-79214.274493
1203.790484,740.205942,444.123565,-76762.768900
1203.793068,740.205942,-1480.411884,-77988.521696
1203.795652,3256.906145,-888.247130,-79367.493593
1203.798236,2072.576638,-1036.288319,-81052.903688
1203.800820,2516.700203,444.123565,-79827.150892
1203.803404,4589.276840,592.164754,-78141.740796
1203.805988,2516.700203,-5773.606348,-79367.493593
1203.808572,10066.800811,-7105.977043,-76915.987999
1203.811156,-2664.741391,3404.947333,-77375.645298
1203.813740,5033.400406,-2072.576638,-82585.094684
1203.816324,296.082377,-1332.370696,-78907.836294
1203.818908,7402.059420,-12435.459826,-80899.684589
1203.821492,-3997.112087,8142.265362,-73698.386908
1203.824076,2220.617826,148.041188,-79673.931792
1203.826660,740.205942,2664.741391,-79061.055394
1203.829244,-1628.453072,-4293.194464,-82891.532884
1203.831828,-5329.482782,14508.036463,-75996.673402
1203.834412,-5329.482782,13471.748144,-77069.207099
1203.836995,-444.123565,-7402.059420,-80440.027290
1203.839579,-2516.700203,888.247130,-76149.892501
1203.842163,-4885.359217,12879.583391,-76609.549800
1203.844746,-4293.194464,7698.141797,-82585.094684
1203.847329,148.041188,2812.782580,-79214.274493
1203.849912,-1924.535449,-2516.700203,-79827.150892
1203.852494,-2072.576638,7698.141797,-76303.111601
1203.855077,-2516.700203,4441.235652,-78754.617194
1203.857660,-4145.153275,6809.894666,-77528.864398
1203.860243,-4737.318029,11991.336260,-79673.931792
1203.862825,-1924.535449,1776.494261,-81206.122788
1203.865408,-592.164754,740.205942,-79367.493593
1203.867991,-2516.700203,1184.329507,-79367.493593
1203.870574,-3256.906145,5181.441594,-74770.920605
1203.873156,-5773.606348,7550.100608,-77682.083497
1203.875739,-10214.842000,6069.688724,-79520.712692
1203.878322,-2516.700203,5625.565159,-80133.589091
1203.880905,-3404.947333,7550.100608,-79520.712692
1203.883487,-7846.182985,5329.482782,-79520.712692
1203.886070,-740.205942,2072.576638,-77682.083497
1203.888653,-5773.606348,7402.059420,-76915.987999
1203.891236,1776.494261,2072.576638,-79367.493593
1203.893819,-7698.141797,3404.947333,-79980.369991
1203.896401,3256.906145,3404.947333,-80746.465489
1203.898984,-2812.782580,8438.347739,-77682.083497
1203.901567,2664.741391,-5477.523971,-79980.369991
1203.904150,148.041188,1184.329507,-74004.825107
1203.906732,592.164754,-11399.171507,-83044.751983
1203.909315,5033.400406,6661.853478,-76609.549800
1203.911898,2516.700203,740.205942,-82891.532884
1203.914481,4441.235652,-6661.853478,-80899.684589
1203.917063,296.082377,-3849.070898,-76149.892501
1203.919646,2960.823768,-2220.617826,-75843.454302
1203.922229,3404.947333,-1776.494261,-77682.083497
1203.924812,6957.935855,-2516.700203,-81512.560987
1203.927393,592.164754,888.247130,-80899.684589
1203.929975,2072.576638,-3997.112087,-81052.903688
1203.932557,3849.070898,2664.741391,-75996.673402
1203.935139,740.205942,-296.082377,-78294.959896
1203.937721,1480.411884,-3404.947333,-79520.712692
1203.940303,2072.576638,148.041188,-77528.864398
1203.942885,5329.482782,3108.864956,-77988.521696
1203.945467,2220.617826,-1184.329507,-81665.780087
1203.948049,1628.453072,-8882.471304,-79673.931792
1203.950631,9178.553681,-296.082377,-75537.016103
1203.953213,-148.041188,-5181.441594,-79673.931792
1203.955794,5477.523971,4293.194464,-78907.836294
1203.958376,592.164754,-5033.400406,-80746.465489
1203.960958,7994.224174,-6513.812290,-80746.465489
1203.963540,2664.741391,592.164754,-75843.454302
1203.966122,2664.741391,4885.359217,-78141.740796
1203.968704,-6513.812290,-1924.535449,-77528.864398
1203.971286,2664.741391,-5033.400406,-81818.999186
1203.973868,-4737.318029,14508.036463,-77988.521696
1203.976450,-3108.864956,-2368.659014,-82738.313784
1203.979032,-1776.494261,10510.924376,-74311.263306
1203.981613,-2960.823768,1332.370696,-80440.027290
1203.984195,-2664.741391,1184.329507,-78448.178995
1203.986777,-5329.482782,6957.935855,-76609.549800
1203.989359,-3997.112087,4737.318029,-81359.341888
1203.991941,-2516.700203,5181.441594,-79367.493593
1203.994523,0.000000,4293.194464,-80899.684589
1203.997105,-4589.276840,6069.688724,-76915.987999
1203.999687,-296.082377,296.082377,-77988.521696
1204.002269,-6365.771101,9918.759623,-75383.797003
1204.004851,-2220.617826,1184.329507,-81206.122788
1204.007433,-1332.370696,296.082377,-80440.027290
1204.010014,1184.329507,8142.265362,-79980.369991
1204.012596,-5329.482782,3108.864956,-80593.246390
1204.015178,-5625.565159,6365.771101,-75843.454302
1204.017760,-6217.729913,1628.453072,-77528.864398
1204.020342,-3997.112087,2220.617826,-77988.521696
1204.022924,-4737.318029,13767.830521,-77682.083497
1204.025506,-7254.018232,12139.377449,-80286.808190
1204.028088,-2220.617826,148.041188,-81052.903688
1204.030667,-3701.029710,9770.718434,-75996.673402
1204.033247,296.082377,-1184.329507,-78448.178995
1204.035827,-3849.070898,6069.688724,-76303.111601
1204.038406,4589.276840,1628.453072,-82585.094684
1204.040986,-7254.018232,2516.700203,-78754.617194
1204.043566,4737.318029,444.123565,-79367.493593
1204.046145,-1924.535449,1480.411884,-77375.645298
1204.048725,3997.112087,-11695.253884,-82278.656485
1204.051305,6661.853478,2220.617826,-75077.358804
1204.053884,0.000000,0.000000,-80440.027290
1204.056464,5329.482782,-7105.977043,-80746.465489
1204.059044,3701.029710,592.164754,-76762.768900
1204.061623,2220.617826,-5625.565159,-80593.246390
1204.064203,1036.288319,-296.082377,-77375.645298
1204.066783,3108.864956,3256.906145,-78601.398095
1204.069362,2664.741391,-5921.647536,-81359.341888
1204.071942,4441.235652,-2220.617826,-77988.521696
1204.074521,-2664.741391,444.123565,-78141.740796
1204.077101,1628.453072,-1776.494261,-79520.712692
1204.079681,2664.741391,1480.411884,-77528.864398
1204.082260,2368.659014,-2664.741391,-80746.465489
1204.084840,2960.823768,2368.659014,-79214.274493
1204.087420,4737.318029,-3552.988522,-80593.246390
1204.089999,6365.771101,-4145.153275,-78907.836294
1204.092579,5181.441594,-7698.141797,-77988.521696
1204.095159,296.082377,2368.659014,-76762.768900
1204.097738,4737.318029,-1480.411884,-80593.246390
1204.100318,1036.288319,-5181.441594,-80440.027290
1204.102898,9326.594869,-5329.482782,-78754.617194
1204.105477,592.164754,2960.823768,-76762.768900
1204.108057,-296.082377,-3552.988522,-78601.398095
1204.110637,3552.988522,7994.224174,-75843.454302
1204.113216,-3256.906145,-7402.059420,-84730.162079
1204.115796,-2664.741391,10362.883188,-75230.577904
1204.118375,-1036.288319,12731.542202,-80133.589091
1204.120955,-2812.782580,-8734.430116,-82278.656485
1204.123535,-592.164754,9918.759623,-74158.044206
1204.126114,-3997.112087,5921.647536,-78141.740796
1204.128694,-4145.153275,3997.112087,-78448.178995
1204.131274,-3404.947333,7550.100608,-77988.521696
1204.133851,3404.947333,2072.576638,-82125.437386
1204.136429,-5921.647536,-1184.329507,-80899.684589
1204.139007,-444.123565,7698.141797,-76609.549800
1204.141585,-8142.265362,8290.306550,-76456.330700
1204.144163,-444.123565,0.000000,-78754.617194
1204.146740,1776.494261,4293.194464,-76303.111601
1204.149318,148.041188,3552.988522,-83044.751983
1204.151896,-1924.535449,1332.370696,-81206.122788
1204.154474,-8882.471304,9326.594869,-77069.207099
1204.157052,-7550.100608,9474.636058,-77069.207099
1204.159629,-6957.935855,6809.894666,-77682.083497
1204.162207,-1332.370696,1480.411884,-77988.521696
1204.164785,-7254.018232,8438.347739,-78601.398095
1204.167363,-444.123565,3701.029710,-80593.246390
1204.169941,-8142.265362,11103.089130,-78294.959896
1204.172518,-740.205942,4441.235652,-79214.274493
1204.175096,-4441.235652,-3552.988522,-77835.302597
1204.177674,3108.864956,6661.853478,-78141.740796
1204.180252,-2812.782580,4885.359217,-79520.712692
1204.182829,3701.029710,-6513.812290,-80746.465489
1204.185407,3997.112087,3849.070898,-73698.386908
1204.187985,0.000000,-148.041188,-81512.560987
1204.190563,5921.647536,-3701.029710,-79520.712692
1204.193141,3701.029710,-3256.906145,-79214.274493
1204.195718,5773.606348,-4589.276840,-79827.150892
1204.198296,-1184.329507,-1776.494261,-76915.987999
1204.200874,3256.906145,1332.370696,-77835.302597
1204.203452,-296.082377,-2368.659014,-76915.987999
1204.206030,6069.688724,-3849.070898,-81052.903688
1204.208607,1184.329507,1184.329507,-78601.398095
1204.211185,2516.700203,-5329.482782,-82278.656485
1204.213763,1924.535449,4589.276840,-75843.454302
1204.216341,-592.164754,1628.453072,-78601.398095
1204.218919,-592.164754,-2960.823768,-79520.712692
1204.221496,6513.812290,-2220.617826,-78141.740796
1204.224074,4441.235652,-3997.112087,-80440.027290
1204.226652,6661.853478,1332.370696,-79367.493593
1204.229230,2220.617826,-3997.112087,-80133.589091
1204.231807,6069.688724,-7698.141797,-78294.959896
1204.234385,3849.070898,3552.988522,-76609.549800
1204.236961,1036.288319,-7698.141797,-81665.780087
1204.239538,7550.100608,-6069.688724,-79980.369991
1204.242114,-296.082377,2516.700203,-77835.302597
1204.244690,3701.029710,148.041188,-80899.684589
1204.247266,1332.370696,7846.182985,-77988.521696
1204.249842,-2368.659014,-13915.871710,-83504.409282
1204.252418,-2368.659014,12583.501014,-74770.920605
1204.254995,-3701.029710,9030.512492,-80286.808190
1204.257571,-2368.659014,-1036.288319,-79520.712692
1204.260147,-4885.359217,12139.377449,-75077.358804
1204.262723,-148.041188,-5181.441594,-82431.875585
1204.265299,-2220.617826,7550.100608,-77069.207099
1204.267875,-4737.318029,9474.636058,-80133.589091
1204.270452,-3404.947333,4441.235652,-82431.875585
1204.273028,-3404.947333,2220.617826,-77682.083497
1204.275604,-1924.535449,5773.606348,-76762.768900
1204.278180,-4589.276840,5181.441594,-77222.426198
1204.280756,4293.194464,2664.741391,-79980.369991
1204.283332,-3849.070898,2072.576638,-78601.398095
1204.285909,-1628.453072,-148.041188,-81206.122788
1204.288485,-296.082377,13915.871710,-76149.892501
1204.291061,-3701.029710,-1036.288319,-82278.656485
1204.293637,-4293.194464,2368.659014,-76609.549800
1204.296213,-4589.276840,15692.365970,-74158.044206
1204.298790,-4145.153275,2664.741391,-81206.122788
1204.301366,-5181.441594,9622.677246,-78907.836294
1204.303942,-6069.688724,6513.812290,-79673.931792
1204.306518,-1776.494261,-592.164754,-79827.150892
1204.309094,-1776.494261,10066.800811,-75690.235202
1204.311670,-6365.771101,148.041188,-81665.780087
1204.314247,1924.535449,2072.576638,-76762.768900
1204.316823,-3849.070898,11251.130318,-77069.207099
1204.319399,1628.453072,-10807.006753,-82278.656485
1204.321975,3849.070898,3108.864956,-75996.673402
1204.324551,4293.194464,2072.576638,-78448.178995
1204.327127,3552.988522,-3701.029710,-80593.246390
1204.329704,1924.535449,4737.318029,-77835.302597
1204.332280,1924.535449,-11399.171507,-81052.903688
1204.334856,444.123565,-2072.576638,-77835.302597
1204.337432,3552.988522,1480.411884,-77222.426198
1204.340006,1776.494261,888.247130,-78754.617194
1204.342580,4885.359217,-3108.864956,-78907.836294
1204.345153,2960.823768,-4293.194464,-79214.274493
1204.347727,3849.070898,-2368.659014,-79520.712692
1204.350301,444.123565,3108.864956,-79367.493593
1204.352875,-1480.411884,-1036.288319,-79061.055394
1204.355448,1628.453072,-1036.288319,-78141.740796
1204.358022,2368.659014,-6365.771101,-79673.931792
1204.360596,148.041188,0.000000,-77988.521696
1204.363169,10807.006753,-6513.812290,-78754.617194
1204.365743,5181.441594,-740.205942,-78601.398095
1204.368317,1332.370696,148.041188,-82738.313784
1204.370891,-1480.411884,-2220.617826,-79673.931792
1204.373464,8142.265362,-1184.329507,-79061.055394
1204.376038,1776.494261,-9474.636058,-77835.302597
1204.378612,5033.400406,1480.411884,-76149.892501
1204.381186,-1628.453072,444.123565,-76762.768900
1204.383759,2664.741391,-888.247130,-81665.780087
1204.386333,-6217.729913,8882.471304,-79980.369991
1204.388907,-6957.935855,2072.576638,-81972.218286
1204.391481,296.082377,12287.418637,-74924.139704
1204.394054,-3108.864956,-6217.729913,-81052.903688
1204.396628,-4441.235652,3701.029710,-75077.358804
1204.399202,-2516.700203,10362.883188,-76915.987999
1204.401776,-3108.864956,1480.411884,-83197.971083
1204.404349,-3701.029710,4589.276840,-81052.903688
1204.406923,-1332.370696,4589.276840,-79520.712692
1204.409497,1332.370696,5181.441594,-77988.521696
1204.412071,-740.205942,1184.329507,-77835.302597
1204.414644,-4293.194464,6513.812290,-75690.235202
1204.417218,-2664.741391,2368.659014,-78601.398095
1204.419792,1924.535449,-1036.288319,-83044.751983
1204.422365,444.123565,4145.153275,-80899.684589
1204.424939,-4589.276840,7994.224174,-78448.178995
1204.427513,-8882.471304,7402.059420,-78294.959896
1204.430087,-5773.606348,5625.565159,-76609.549800
1204.432660,-5477.523971,5181.441594,-76303.111601
1204.435234,-1036.288319,2812.782580,-78448.178995
1204.437808,-4885.359217,6661.853478,-79520.712692
1204.440382,-4589.276840,11399.171507,-81512.560987
1204.442954,-296.082377,2516.700203,-82278.656485
1204.445526,-6809.894666,592.164754,-77528.864398
1204.448098,-1184.329507,1480.411884,-75690.235202
1204.450670,-148.041188,8290.306550,-76149.892501
1204.453241,592.164754,-8586.388927,-81512.560987
1204.455813,6365.771101,2960.823768,-75996.673402
1204.458385,-4885.359217,3997.112087,-80899.684589
1204.460957,4145.153275,-5921.647536,-83044.751983
1204.463529,3701.029710,-2072.576638,-77835.302597
1204.466101,4885.359217,-8882.471304,-79980.369991
1204.468673,2812.782580,-2072.576638,-76609.549800
1204.471245,3108.864956,4885.359217,-77069.207099
1204.473817,-2072.576638,-5329.482782,-79520.712692
1204.476389,5329.482782,-1628.453072,-79980.369991
1204.478961,3701.029710,-1776.494261,-80746.465489
1204.481533,2664.741391,-4293.194464,-81512.560987
1204.484105,1332.370696,4589.276840,-79520.712692
1204.486677,-3404.947333,-296.082377,-78601.398095
1204.489249,3701.029710,-1480.411884,-77375.645298
1204.491821,6513.812290,-9030.512492,-82125.437386
1204.494393,9030.512492,-1036.288319,-81206.122788
1204.496965,4441.235652,-2072.576638,-79827.150892
1204.499537,2812.782580,740.205942,-78601.398095
1204.502109,3701.029710,-2664.741391,-76762.768900
1204.504681,3108.864956,-4441.235652,-79520.712692
1204.507253,8290.306550,-6365.771101,-79827.150892
1204.509825,1776.494261,-888.247130,-79673.931792
1204.512397,3997.112087,2664.741391,-79061.055394
1204.514969,-4589.276840,5625.565159,-77988.521696
1204.517540,-296.082377,-9474.636058,-82125.437386
1204.520112,-1776.494261,14656.077652,-74770.920605
1204.522684,-2220.617826,-1776.494261,-83504.409282
1204.525256,-1332.370696,6661.853478,-75077.358804
1204.527828,-4441.235652,5773.606348,-79061.055394
1204.530400,-5625.565159,2664.741391,-77375.645298
1204.532972,-2368.659014,4737.318029,-77835.302597
1204.535544,-2960.823768,5625.565159,-79827.150892
1204.538116,1036.288319,5625.565159,-81818.999186
1204.540688,-3404.947333,8438.347739,-78294.959896
1204.543260,-4885.359217,3404.947333,-78754.617194
1204.545830,-4737.318029,3849.070898,-75843.454302
1204.548400,1036.288319,-1776.494261,-79214.274493
1204.550971,2368.659014,4293.194464,-78141.740796
1204.553541,-888.247130,3552.988522,-80899.684589
1204.556112,-2368.659014,13767.830521,-77682.083497
1204.558682,-4737.318029,4293.194464,-80746.465489
1204.561253,-4589.276840,2516.700203,-76762.768900
1204.563823,-5773.606348,6513.812290,-77222.426198
1204.566394,-3701.029710,11991.336260,-78141.740796
1204.568964,-2368.659014,2812.782580,-79980.369991
1204.571535,-5181.441594,11399.171507,-77528.864398
1204.574105,740.205942,888.247130,-80133.589091
1204.576676,-5625.565159,2368.659014,-78601.398095
1204.579246,1332.370696,3701.029710,-78907.836294
1204.581817,-2664.741391,5625.565159,-77835.302597
1204.584387,3849.070898,-3552.988522,-79367.493593
1204.586958,-888.247130,444.123565,-76762.768900
1204.589528,1332.370696,-6809.894666,-81972.218286
1204.592099,6661.853478,6513.812290,-76303.111601
1204.594669,444.123565,2220.617826,-80593.246390
1204.597240,7254.018232,-12287.418637,-81665.780087
1204.599810,148.041188,3701.029710,-74617.701505
1204.602381,5773.606348,-7846.182985,-79673.931792
1204.604951,5181.441594,2960.823768,-76609.549800
1204.607522,1332.370696,148.041188,-81206.122788
1204.610093,3108.864956,-4441.235652,-80746.465489
1204.612663,-592.164754,444.123565,-77528.864398
1204.615234,2960.823768,0.000000,-79367.493593
1204.617804,-148.041188,444.123565,-78294.959896
1204.620375,888.247130,-2072.576638,-78754.617194
1204.622945,148.041188,-6217.729913,-80286.808190
1204.625516,8290.306550,-148.041188,-77069.207099
1204.628086,2812.782580,-3108.864956,-80133.589091
1204.630657,5033.400406,-6957.935855,-78294.959896
1204.633227,1776.494261,2368.659014,-76762.768900
1204.635798,444.123565,-1924.535449,-82125.437386
1204.638368,5921.647536,-7254.018232,-79827.150892
1204.640939,1036.288319,740.205942,-76915.987999
1204.643509,3108.864956,-2516.700203,-76762.768900
1204.646080,-2072.576638,9178.553681,-76915.987999
1204.648648,-6217.729913,3701.029710,-80286.808190
1204.651216,-1628.453072,4145.153275,-80440.027290
1204.653785,-3108.864956,14656.077652,-78141.740796
1204.656353,-4737.318029,-9622.677246,-82891.532884
1204.658922,0.000000,7846.182985,-71706.538613
1204.661490,-3701.029710,10955.047942,-75843.454302
1204.664058,-6809.894666,1924.535449,-81818.999186
1204.666627,-1480.411884,6217.729913,-80286.808190
1204.669195,-296.082377,4441.235652,-81512.560987
1204.671763,-5181.441594,5181.441594,-79980.369991
1204.674332,3404.947333,6217.729913,-76149.892501
1204.676900,1332.370696,6069.688724,-75843.454302
1204.679469,-2072.576638,-3701.029710,-81972.218286
1204.682037,-1776.494261,1776.494261,-79367.493593
1204.684605,-2368.659014,11843.295072,-79827.150892
1204.687174,-6661.853478,6809.894666,-80899.684589
1204.689742,-2368.659014,2072.576638,-78907.836294
1204.692310,-6809.894666,9474.636058,-75230.577904
1204.694879,-5477.523971,2220.617826,-80286.808190
1204.697447,-1924.535449,9326.594869,-75077.358804
1204.700016,-3108.864956,7105.977043,-80286.808190
1204.702584,-740.205942,-1628.453072,-80133.589091
1204.705152,-2812.782580,4293.194464,-77835.302597
1204.707721,-2220.617826,2072.576638,-79214.274493
1204.710289,2220.617826,7402.059420,-77222.426198
1204.712857,740.205942,-4293.194464,-79061.055394
1204.715426,6809.894666,-4589.276840,-77375.645298
1204.717994,-888.247130,5625.565159,-79061.055394
1204.720563,1332.370696,-4885.359217,-81972.218286
1204.723131,5329.482782,3552.988522,-78448.178995
1204.725699,3849.070898,-6809.894666,-80593.246390
1204.728268,7698.141797,-7550.100608,-77682.083497
1204.730836,6217.729913,2368.659014,-74924.139704
1204.733404,4737.318029,-5625.565159,-81512.560987
1204.735973,1036.288319,2072.576638,-78601.398095
1204.738541,3404.947333,-4737.318029,-82125.437386
1204.741109,740.205942,740.205942,-76762.768900
1204.743678,1628.453072,1480.411884,-79980.369991
1204.746246,-888.247130,-2812.782580,-77988.521696
1204.748815,7550.100608,888.247130,-76762.768900
1204.751382,296.082377,-592.164754,-80440.027290
1204.753949,5625.565159,-11991.336260,-82278.656485
1204.756516,6069.688724,-1776.494261,-76762.768900
1204.759083,8290.306550,-592.164754,-77988.521696
1204.761650,1776.494261,-2516.700203,-79367.493593
1204.764217,6365.771101,1628.453072,-79827.150892
1204.766784,740.205942,-10955.047942,-81206.122788
1204.769351,5477.523971,2072.576638,-77528.864398
1204.771918,-3552.988522,-2516.700203,-77069.207099
1204.774485,1924.535449,-1184.329507,-78448.178995
1204.777052,-2664.741391,13027.624579,-78141.740796
1204.779619,-8734.430116,-3552.988522,-83810.847481
1204.782186,-1480.411884,11251.130318,-75537.016103
1204.784753,-2960.823768,2812.782580,-77988.521696
1204.787321,-4885.359217,1776.494261,-77528.864398
1204.789888,-6809.894666,12287.418637,-74158.044206
1204.792455,-3997.112087,2812.782580,-82278.656485
1204.795022,-3552.988522,2516.700203,-80286.808190
1204.797589,-1628.453072,2812.782580,-80593.246390
1204.800156,-2960.823768,8142.265362,-79367.493593
1204.802723,-3552.988522,7254.018232,-78141.740796
1204.805290,-2072.576638,2812.782580,-76456.330700
1204.807857,-3108.864956,-1628.453072,-78141.740796
1204.810424,1776.494261,3404.947333,-79673.931792
1204.812991,-2516.700203,14063.912898,-77682.083497
1204.815558,-3849.070898,2072.576638,-82125.437386
1204.818125,-4589.276840,7994.224174,-76609.549800
1204.820692,-7550.100608,7846.182985,-78601.398095
1204.823259,-4441.235652,3256.906145,-77375.645298
1204.825827,-10214.842000,5329.482782,-76609.549800
1204.828394,444.123565,7254.018232,-79673.931792
1204.830961,-2960.823768,2220.617826,-81359.341888
1204.833528,-296.082377,3256.906145,-81052.903688
1204.836095,-6217.729913,4885.359217,-77988.521696
1204.838662,3701.029710,-1924.535449,-78294.959896
1204.841229,3701.029710,-2220.617826,-77222.426198
1204.843796,3256.906145,-6661.853478,-80593.246390
1204.846363,-1332.370696,6957.935855,-76149.892501
1204.848930,5033.400406,-888.247130,-81512.560987
1204.851497,5033.400406,-2220.617826,-79827.150892
1204.854063,4885.359217,-11251.130318,-80286.808190
1204.856630,7698.141797,-1924.535449,-76762.768900
1204.859196,-1924.535449,3108.864956,-77988.521696
1204.861762,2664.741391,-1480.411884,-80133.589091
1204.864329,-740.205942,1480.411884,-78601.398095
1204.866895,3108.864956,-7994.224174,-81665.780087
1204.869461,888.247130,740.205942,-77222.426198
1204.872028,740.205942,296.082377,-77682.083497
1204.874594,2220.617826,2220.617826,-77528.864398
1204.877160,6217.729913,-296.082377,-80899.684589
1204.879726,3997.112087,-11251.130318,-82125.437386
1204.882293,9622.677246,-4441.235652,-76609.549800
1204.884859,3552.988522,2220.617826,-78294.959896
1204.887425,0.000000,-3997.112087,-79520.712692
1204.889992,3256.906145,444.123565,-77988.521696
1204.892558,7105.977043,-5773.606348,-80899.684589
1204.895124,4589.276840,1332.370696,-79367.493593
1204.897690,2072.576638,-3849.070898,-78754.617194
1204.900257,-1332.370696,740.205942,-77375.645298
1204.902823,-4885.359217,12139.377449,-77835.302597
1204.905389,-8290.306550,-4293.194464,-82278.656485
1204.907956,592.164754,11843.295072,-75843.454302
1204.910522,888.247130,-4441.235652,-83657.628382
1204.913088,-3849.070898,4145.153275,-76609.549800
1204.915655,-3997.112087,17320.819043,-74311.263306
1204.918221,-7402.059420,6069.688724,-80899.684589
1204.920787,-888.247130,-1628.453072,-81665.780087
1204.923353,-3552.988522,7105.977043,-78141.740796
1204.925920,-1924.535449,2368.659014,-80593.246390
1204.928486,-1776.494261,8142.265362,-77528.864398
1204.931052,-2368.659014,5033.400406,-77375.645298
1204.933619,148.041188,-1036.288319,-79214.274493
1204.936185,-1480.411884,4293.194464,-80440.027290
1204.938751,-1924.535449,8142.265362,-79214.274493
1204.941318,-4885.359217,7402.059420,-79827.150892
1204.943884,-6069.688724,7994.224174,-77835.302597
1204.946450,-5921.647536,7105.977043,-79520.712692
1204.949016,-6513.812290,3701.029710,-78754.617194
1204.951583,-2368.659014,5625.565159,-77528.864398
1204.954149,-1184.329507,7846.182985,-78294.959896
1204.956714,-3849.070898,3701.029710,-79980.369991
1204.959278,-6217.729913,3404.947333,-79367.493593
1204.961843,-4293.194464,10955.047942,-77835.302597
1204.964407,4441.235652,-10658.965565,-80899.684589
1204.966972,5921.647536,-2516.700203,-76149.892501
1204.969537,1332.370696,-7402.059420,-80593.246390
1204.972101,2220.617826,10362.883188,-75843.454302
1204.974666,2368.659014,3849.070898,-79980.369991
1204.977230,9030.512492,-13323.706956,-82891.532884
1204.979795,2220.617826,-1184.329507,-75843.454302
1204.982360,1332.370696,-6661.853478,-79367.493593
1204.984924,5625.565159,0.000000,-76149.892501
1204.987489,-888.247130,4589.276840,-78601.398095
1204.990053,-1924.535449,-5477.523971,-83197.971083
1204.992618,3701.029710,-2368.659014,-77988.521696
1204.995183,3849.070898,1776.494261,-79214.274493
1204.997747,-5625.565159,-2516.700203,-78601.398095
1205.000312,5033.400406,-5625.565159,-78601.398095
1205.002876,5921.647536,148.041188,-77375.645298
1205.005441,7550.100608,-10214.842000,-83351.190182
1205.008006,1036.288319,2812.782580,-75996.673402
1205.010570,5329.482782,-3849.070898,-79214.274493
1205.013135,444.123565,148.041188,-78294.959896
1205.015699,5181.441594,-5033.400406,-80133.589091
1205.018264,-1776.494261,-3701.029710,-78294.959896
1205.020829,5773.606348,-2812.782580,-78294.959896
1205.023393,3108.864956,6661.853478,-76762.768900
1205.025958,-3108.864956,-1332.370696,-81665.780087
1205.028522,-6069.688724,6809.894666,-76915.987999
1205.031087,-4293.194464,14952.160028,-79214.274493
1205.033652,-2072.576638,-7994.224174,-83810.847481
1205.036216,0.000000,5625.565159,-73698.386908
1205.038781,-3997.112087,8438.347739,-77528.864398
1205.041345,-6661.853478,2812.782580,-79673.931792
1205.043910,-3256.906145,12139.377449,-77835.302597
1205.046475,-4885.359217,1776.494261,-83964.066581
1205.049039,-148.041188,-296.082377,-79827.150892
1205.051604,-592.164754,7105.977043,-76303.111601
1205.054168,-1036.288319,9622.677246,-75537.016103
1205.056733,-3552.988522,-5181.441594,-80746.465489
1205.059296,444.123565,5477.523971,-78601.398095
1205.061860,-5181.441594,8142.265362,-80593.246390
1205.064423,-2368.659014,5033.400406,-80133.589091
1205.066987,-6069.688724,10362.883188,-77375.645298
1205.069550,-5921.647536,4737.318029,-79827.150892
1205.072114,-7254.018232,3108.864956,-77069.207099
1205.074677,-1924.535449,8142.265362,-77222.426198
1205.077241,0.000000,1480.411884,-79827.150892
1205.079804,-3256.906145,1924.535449,-80133.589091
1205.082367,-1480.411884,5181.441594,-78754.617194
1205.084931,444.123565,5625.565159,-77375.645298
1205.087494,1924.535449,-7550.100608,-79367.493593
1205.090058,5625.565159,-740.205942,-77069.207099
1205.092621,1628.453072,888.247130,-77069.207099
1205.095185,2960.823768,-2664.741391,-79520.712692
1205.097748,3552.988522,1036.288319,-79214.274493
1205.100312,6957.935855,-7550.100608,-83044.751983
1205.102875,6217.729913,-2812.782580,-78294.959896
1205.105438,444.123565,-1924.535449,-76609.549800
1205.108002,-148.041188,-740.205942,-75996.673402
1205.110565,5033.400406,-296.082377,-77528.864398
1205.113129,4441.235652,-3997.112087,-82278.656485
1205.115692,1036.288319,-3108.864956,-81206.122788
1205.118256,2812.782580,2368.659014,-78141.740796
1205.120819,592.164754,7846.182985,-75230.577904
1205.123383,2664.741391,-8882.471304,-80133.589091
1205.125946,9178.553681,-11251.130318,-76762.768900
1205.128509,7105.977043,1332.370696,-78141.740796
1205.131073,3256.906145,-148.041188,-81665.780087
1205.133636,888.247130,-2516.700203,-79827.150892
1205.136200,5033.400406,-5329.482782,-79367.493593
1205.138763,2664.741391,-4885.359217,-77835.302597
1205.141326,7402.059420,-1184.329507,-78294.959896
1205.143889,-592.164754,-1480.411884,-79520.712692
1205.146451,1628.453072,-2812.782580,-79367.493593
1205.149014,-7994.224174,20133.601622,-76303.111601
1205.151577,-8438.347739,-2072.576638,-82891.532884
1205.154140,592.164754,5181.441594,-75996.673402
1205.156702,2220.617826,3256.906145,-80133.589091
1205.159265,-5921.647536,-2072.576638,-78907.836294
1205.161828,-6957.935855,14508.036463,-72625.853210
1205.164390,-6069.688724,11695.253884,-78448.178995
1205.166953,-1628.453072,-3701.029710,-84730.162079
1205.169516,-1776.494261,9030.512492,-77528.864398
1205.172079,-3552.988522,3552.988522,-80440.027290
1205.174641,-1776.494261,4293.194464,-75537.016103
1205.177204,-2516.700203,2664.741391,-75383.797003
1205.179767,-1332.370696,6661.853478,-78448.178995
1205.182329,-1332.370696,1628.453072,-83044.751983
1205.184892,-4441.235652,7846.182985,-79827.150892
1205.187455,-5033.400406,13471.748144,-79520.712692
1205.190018,-10362.883188,6217.729913,-80286.808190
1205.192580,-8586.388927,-1036.288319,-78141.740796
1205.195143,444.123565,3256.906145,-74617.701505
1205.197706,-2072.576638,8142.265362,-78754.617194
1205.200268,-4885.359217,3108.864956,-83044.751983
1205.202831,592.164754,12435.459826,-77988.521696
1205.205394,-9474.636058,4589.276840,-81359.341888
1205.207956,7402.059420,-10362.883188,-78294.959896
1205.210519,6957.935855,2516.700203,-73085.510509
1205.213082,3701.029710,-11399.171507,-82431.875585
1205.215645,1184.329507,11399.171507,-74464.482406
1205.218207,1036.288319,-3256.906145,-83351.190182
1205.220770,5477.523971,-10214.842000,-83810.847481
1205.223333,6069.688724,-2072.576638,-77835.302597
1205.225895,5033.400406,-8290.306550,-78448.178995
1205.228458,3552.988522,0.000000,-74770.920605
1205.231021,1184.329507,444.123565,-77988.521696
1205.233584,3701.029710,-5329.482782,-81972.218286
1205.236146,6513.812290,5181.441594,-80593.246390
1205.238709,-1184.329507,-3997.112087,-86262.353075
1205.241272,148.041188,740.205942,-76149.892501
1205.243795,3701.029710,-2368.659014,-73545.167808
1205.246318,5625.565159,-3701.029710,-74464.482406
1205.248841,3997.112087,-2516.700203,-78907.836294
1205.251364,4441.235652,-740.205942,-79214.274493
1205.253887,6217.729913,-2664.741391,-83504.409282
1205.256410,0.000000,-1628.453072,-81512.560987
1205.258933,-2664.741391,296.082377,-78601.398095
1205.261456,5625.565159,-4441.235652,-77528.864398
1205.263979,7550.100608,-1332.370696,-76456.330700
1205.266502,444.123565,-9770.718434,-80286.808190
1205.269026,-6365.771101,20577.725188,-76303.111601
1205.271549,-6957.935855,14804.118840,-81052.903688
1205.274072,-2220.617826,-2220.617826,-84117.285680
1205.276595,-1332.370696,3997.112087,-74158.044206
1205.279118,-5033.400406,-1776.494261,-76609.549800
1205.281641,-3701.029710,4589.276840,-75843.454302
1205.284164,-6809.894666,13619.789333,-78448.178995
1205.286687,-4885.359217,-592.164754,-86262.353075
1205.289210,-1036.288319,9622.677246,-77988.521696
1205.291733,-1628.453072,1184.329507,-82125.437386
1205.294256,-2812.782580,3701.029710,-74617.701505
1205.296779,-1924.535449,6069.688724,-73851.606007
1205.299302,-2516.700203,5329.482782,-78448.178995
1205.301826,-3701.029710,2960.823768,-83044.751983
1205.304349,-5329.482782,14804.118840,-80286.808190
1205.306872,-7254.018232,1776.494261,-83657.628382
1205.309395,-4145.153275,8734.430116,-75383.797003
1205.311918,-3849.070898,10066.800811,-75690.235202
1205.314441,-3701.029710,-2664.741391,-79367.493593
1205.316964,1184.329507,6809.894666,-75383.797003
1205.319487,-5921.647536,1480.411884,-82585.094684
1205.322010,296.082377,2664.741391,-81665.780087
1205.324533,-444.123565,10955.047942,-76915.987999
1205.327056,1924.535449,-9326.594869,-80593.246390
1205.329579,5477.523971,-2220.617826,-73085.510509
1205.332102,1480.411884,1332.370696,-76303.111601
1205.334625,3256.906145,-9030.512492,-80440.027290
1205.337149,1036.288319,10510.924376,-79214.274493
1205.339672,5329.482782,-9474.636058,-86875.229473
1205.342195,5625.565159,-1776.494261,-78141.740796
1205.344726,2664.741391,-3701.029710,-76149.892501
1205.347256,3108.864956,-7698.141797,-75996.673402
1205.349787,148.041188,3404.947333,-74924.139704
1205.352318,3552.988522,1776.494261,-81665.780087
1205.354849,0.000000,-6809.894666,-83657.628382
1205.357380,6809.894666,7105.977043,-77682.083497
1205.359910,-2664.741391,-1628.453072,-79214.274493
1205.362441,7254.018232,-12139.377449,-77069.207099
1205.364972,5773.606348,-148.041188,-73851.606007
1205.367503,8142.265362,-5773.606348,-81665.780087
1205.370034,1924.535449,-1776.494261,-81052.903688
1205.372564,3552.988522,2220.617826,-79980.369991
1205.375095,148.041188,-7846.182985,-80899.684589
1205.377626,5625.565159,3997.112087,-77528.864398
1205.380157,-7994.224174,-1628.453072,-76149.892501
1205.382688,8882.471304,-8290.306550,-79980.369991
1205.385219,-7994.224174,22650.301825,-74770.920605
1205.387749,-7402.059420,-5921.647536,-87947.763170
1205.390280,-3849.070898,18209.066173,-72472.634111
1205.392811,0.000000,-3108.864956,-85036.600278
1205.395342,-3256.906145,-888.247130,-76456.330700
1205.397873,-740.205942,13027.624579,-72012.976812
1205.400403,-9918.759623,888.247130,-79673.931792
1205.402934,-2664.741391,5773.606348,-79061.055394
1205.405465,-2072.576638,12731.542202,-78601.398095
1205.407996,-6809.894666,-2072.576638,-83657.628382
1205.410527,592.164754,9622.677246,-73698.386908
1205.413057,-2220.617826,888.247130,-76762.768900
1205.415588,-1184.329507,0.000000,-76149.892501
1205.418119,-2960.823768,6365.771101,-79214.274493
1205.420650,-5477.523971,8586.388927,-81972.218286
1205.423181,-7698.141797,7698.141797,-82431.875585
1205.425712,-6661.853478,11547.212695,-77375.645298
1205.428242,-6957.935855,7105.977043,-75690.235202
1205.430773,-1332.370696,-3404.947333,-77222.426198
1205.433304,3108.864956,888.247130,-75843.454302
1205.435835,-1480.411884,9326.594869,-82738.313784
1205.438366,-7105.977043,5181.441594,-85189.819378
1205.440896,-1184.329507,6217.729913,-78601.398095
1205.443427,1776.494261,-2812.782580,-78141.740796
1205.445965,3108.864956,-11991.336260,-75537.016103
1205.448502,7846.182985,5033.400406,-71859.757712
1205.451039,1480.411884,-3552.988522,-80593.246390
1205.453577,-1184.329507,1628.453072,-82431.875585
1205.456114,3256.906145,-1480.411884,-82891.532884
1205.458652,4885.359217,-8734.430116,-81206.122788
1205.461189,3108.864956,-740.205942,-73238.729609
1205.463726,3256.906145,-740.205942,-74617.701505
1205.466264,4737.318029,-4145.153275,-77988.521696
1205.468801,0.000000,-2220.617826,-81052.903688
1205.471339,0.000000,3701.029710,-81972.218286
1205.473876,3701.029710,2516.700203,-80746.465489
1205.476414,5625.565159,-6513.812290,-80286.808190
1205.478951,3849.070898,-2960.823768,-75230.577904
1205.481488,5921.647536,-9178.553681,-77835.302597
1205.484026,2960.823768,-5181.441594,-75230.577904
1205.486563,4885.359217,-888.247130,-81052.903688
1205.489101,3404.947333,-148.041188,-82125.437386
1205.491638,-2072.576638,1480.411884,-80593.246390
1205.494175,5329.482782,148.041188,-77069.207099
1205.496713,4441.235652,444.123565,-73698.386908
1205.499250,-6069.688724,-888.247130,-78907.836294
1205.501788,-5181.441594,9030.512492,-77988.521696
1205.504325,-10658.965565,15988.448347,-80133.589091
1205.506862,-2664.741391,-8734.430116,-87641.324971
1205.509400,444.123565,9770.718434,-75690.235202
1205.511937,-3701.029710,13027.624579,-73545.167808
1205.514475,-8882.471304,-148.041188,-76915.987999
1205.517012,296.082377,8734.430116,-75077.358804
1205.519549,-8142.265362,6365.771101,-82431.875585
1205.522087,-2960.823768,-444.123565,-84730.162079
1205.524624,-1184.329507,11843.295072,-78141.740796
1205.527162,-3552.988522,-2516.700203,-78601.398095
1205.529699,740.205942,6365.771101,-71400.100414
1205.532237,-2664.741391,2516.700203,-77988.521696
1205.534774,-4145.153275,6069.688724,-80593.246390
1205.537311,-8882.471304,12731.542202,-81206.122788
1205.539849,-6661.853478,10658.965565,-81512.560987
1205.542386,-10066.800811,6365.771101,-77835.302597
1205.544924,592.164754,592.164754,-74617.701505
1205.547421,-148.041188,2516.700203,-74004.825107
1205.549927,444.123565,3256.906145,-80746.465489
1205.552432,-4737.318029,3701.029710,-82431.875585
1205.554937,-1924.535449,11843.295072,-80899.684589
1205.557443,148.041188,-5625.565159,-80746.465489
1205.559948,7402.059420,-2072.576638,-75230.577904
1205.562453,3552.988522,-1776.494261,-76303.111601
1205.564959,5625.565159,-5329.482782,-77222.426198
1205.567464,3256.906145,3404.947333,-79214.274493
1205.569970,1332.370696,-1776.494261,-84883.381178
1205.572475,2220.617826,-4885.359217,-80593.246390
1205.574980,5625.565159,1924.535449,-75690.235202
1205.577486,2220.617826,-4737.318029,-78294.959896
1205.579991,2220.617826,-2072.576638,-76149.892501
1205.582496,-2220.617826,-5477.523971,-79520.712692
1205.585002,2664.741391,3256.906145,-78754.617194
1205.587507,4589.276840,2516.700203,-82738.313784
1205.590012,1628.453072,-6513.812290,-82278.656485
1205.592518,7550.100608,-5329.482782,-76762.768900
1205.595023,6513.812290,-444.123565,-76303.111601
1205.597529,2664.741391,-10510.924376,-80286.808190
1205.600034,4293.194464,-3701.029710,-77528.864398
1205.602539,888.247130,1776.494261,-80593.246390
1205.605045,2368.659014,740.205942,-82891.532884
1205.607550,1332.370696,-4737.318029,-79061.055394
1205.610055,3404.947333,3404.947333,-75230.577904
1205.612561,-3997.112087,-5329.482782,-79520.712692
1205.615066,-3404.947333,11547.212695,-77069.207099
1205.617571,-11103.089130,14211.954086,-76915.987999
1205.620077,-3849.070898,-4589.276840,-87641.324971
1205.622582,-1036.288319,3552.988522,-77528.864398
1205.625088,-1332.370696,5921.647536,-76915.987999
1205.627593,-7402.059420,3552.988522,-75383.797003
1205.630098,-2516.700203,11547.212695,-77682.083497
1205.632604,-4737.318029,3701.029710,-82891.532884
1205.635109,-3108.864956,2960.823768,-81665.780087
1205.637614,-2812.782580,7550.100608,-78294.959896
1205.640120,-148.041188,1480.411884,-77682.083497
1205.642625,-1924.535449,-3552.988522,-77988.521696
1205.645130,-5181.441594,3701.029710,-78294.959896
1205.647648,-4145.153275,10658.965565,-80593.246390
1205.650166,-6365.771101,14359.995275,-82278.656485
1205.652684,-10955.047942,2220.617826,-81818.999186
1205.655202,-3849.070898,7105.977043,-74158.044206
1205.657720,-1480.411884,2516.700203,-76456.330700
1205.660238,-148.041188,3256.906145,-76915.987999
1205.662756,1628.453072,8882.471304,-80440.027290
1205.665274,-6661.853478,3108.864956,-83810.847481
1205.667792,2960.823768,3997.112087,-81512.560987
1205.670310,4737.318029,2960.823768,-75383.797003
1205.672828,3849.070898,-14063.912898,-78601.398095
1205.675346,9030.512492,1480.411884,-71706.538613
1205.677864,1184.329507,2220.617826,-78448.178995
1205.680382,2812.782580,-5329.482782,-84423.723880
1205.682900,8142.265362,1924.535449,-81206.122788
1205.685418,1628.453072,-4293.194464,-83504.409282
1205.687936,3404.947333,-148.041188,-74617.701505
1205.690454,1924.535449,-2664.741391,-73238.729609
1205.692972,2368.659014,-2368.659014,-76149.892501
1205.695490,1628.453072,-4589.276840,-81512.560987
1205.698008,4293.194464,-1480.411884,-84730.162079
1205.700525,3997.112087,2072.576638,-79980.369991
1205.703043,3256.906145,-2960.823768,-79520.712692
1205.705561,2812.782580,-3997.112087,-74924.139704
1205.708079,9030.512492,-13027.624579,-75383.797003
1205.710597,4441.235652,-7550.100608,-77528.864398
1205.713115,4441.235652,296.082377,-82738.313784
1205.715633,-1480.411884,-1184.329507,-83964.066581
1205.718151,5773.606348,4885.359217,-80286.808190
1205.720669,-444.123565,-3997.112087,-79061.055394
1205.723187,4145.153275,-11103.089130,-76915.987999
1205.725705,-2516.700203,9622.677246,-72932.291410
1205.728223,-13027.624579,12435.459826,-81665.780087
1205.730741,-2664.741391,1332.370696,-83657.628382
1205.733259,-444.123565,7994.224174,-80593.246390
1205.735777,-1332.370696,-3997.112087,-80746.465489
1205.738295,-1036.288319,7402.059420,-73238.729609
1205.740813,-8290.306550,8142.265362,-76149.892501
1205.743331,-3108.864956,1924.535449,-80133.589091
1205.745849,-6513.812290,11103.089130,-79520.712692
1205.748377,-5033.400406,-444.123565,-82585.094684
1205.750906,740.205942,4145.153275,-76609.549800
1205.753434,2072.576638,2516.700203,-74617.701505
1205.755963,-5033.400406,4293.194464,-77682.083497
1205.758492,-7402.059420,10066.800811,-78141.740796
1205.761020,-7550.100608,11251.130318,-81818.999186
1205.763549,-6957.935855,3849.070898,-82431.875585
1205.766077,-8290.306550,7698.141797,-76915.987999
1205.768606,-2960.823768,9474.636058,-75383.797003
1205.771135,-1628.453072,740.205942,-76915.987999
1205.773663,-1628.453072,5329.482782,-76762.768900
1205.776192,-7994.224174,4293.194464,-81052.903688
1205.778720,4885.359217,1480.411884,-83197.971083
1205.781249,1036.288319,888.247130,-78754.617194
1205.783778,2664.741391,-12583.501014,-78294.959896
1205.786306,2368.659014,12139.377449,-68642.156621
1205.788835,888.247130,-10066.800811,-81665.780087
1205.791363,7254.018232,-6069.688724,-79673.931792
1205.793892,2516.700203,3701.029710,-81665.780087
1205.796420,444.123565,-6513.812290,-85036.600278
1205.798949,3997.112087,6217.729913,-74158.044206
1205.801478,2072.576638,-5773.606348,-77375.645298
1205.804006,592.164754,-8586.388927,-77222.426198
1205.806535,2516.700203,3849.070898,-77528.864398
1205.809063,148.041188,-3849.070898,-84883.381178
1205.811592,6069.688724,1332.370696,-81052.903688
1205.814121,2072.576638,-1628.453072,-79980.369991
1205.816649,4145.153275,-7402.059420,-76149.892501
1205.819178,9030.512492,-10955.047942,-75383.797003
1205.821706,8734.430116,-3256.906145,-77988.521696
1205.824235,2664.741391,-888.247130,-82125.437386
1205.826763,-2220.617826,2220.617826,-81972.218286
1205.829292,-740.205942,-2516.700203,-79367.493593
1205.831821,6217.729913,-148.041188,-76915.987999
1205.834349,-1924.535449,-11251.130318,-77069.207099
1205.836878,-2664.741391,16432.571912,-73851.606007
1205.839406,-11695.253884,11991.336260,-82278.656485
1205.841935,-2812.782580,-148.041188,-83810.847481
1205.844464,-1184.329507,5181.441594,-78141.740796
1205.846992,-3997.112087,-3256.906145,-79520.712692
1205.849529,-2368.659014,5329.482782,-73391.948708
1205.852065,-5773.606348,10955.047942,-75537.016103
1205.854602,-4145.153275,-444.123565,-83197.971083
1205.857139,-2072.576638,7550.100608,-81665.780087
1205.859675,-3404.947333,4589.276840,-81512.560987
1205.862212,-1776.494261,1184.329507,-76149.892501
1205.864749,-444.123565,592.164754,-74311.263306
1205.867285,-4293.194464,6217.729913,-74770.920605
1205.869822,-7402.059420,8142.265362,-81206.122788
1205.872358,-5921.647536,15840.407159,-80899.684589
1205.874895,-6069.688724,2072.576638,-85955.914876
1205.877432,-5329.482782,8290.306550,-76609.549800
1205.879968,-7550.100608,8586.388927,-74158.044206
1205.882505,1036.288319,-592.164754,-75843.454302
1205.885042,-2220.617826,6365.771101,-77528.864398
1205.887578,-1480.411884,10362.883188,-81665.780087
1205.890115,2960.823768,-3108.864956,-86415.572174
1205.892651,3552.988522,-740.205942,-78907.836294
1205.895188,-1332.370696,-4737.318029,-75843.454302
1205.897725,4737.318029,3849.070898,-71859.757712
1205.900261,2220.617826,-4885.359217,-77375.645298
1205.902798,6513.812290,-6809.894666,-81359.341888
1205.905335,5477.523971,592.164754,-83351.190182
1205.907871,3108.864956,-296.082377,-82278.656485
1205.910408,5181.441594,-1480.411884,-74770.920605
1205.912944,1480.411884,-5329.482782,-74924.139704
1205.915481,4589.276840,-3256.906145,-77682.083497
1205.918018,-1480.411884,4589.276840,-80593.246390
1205.920554,1628.453072,-2812.782580,-84117.285680
1205.923091,7105.977043,-1776.494261,-79980.369991
1205.925628,5773.606348,-2960.823768,-78601.398095
1205.928164,4589.276840,-10658.965565,-76762.768900
1205.930701,6217.729913,-2220.617826,-73851.606007
1205.933238,4145.153275,-8586.388927,-81052.903688
1205.935774,2368.659014,-2220.617826,-81359.341888
1205.938311,1332.370696,5921.647536,-78754.617194
1205.940847,1036.288319,148.041188,-79827.150892
1205.943384,444.123565,-12583.501014,-77835.302597
1205.945921,-740.205942,15692.365970,-71093.662214
1205.948457,-10510.924376,4441.235652,-80746.465489
1205.951001,-592.164754,6809.894666,-82125.437386
1205.953544,-3701.029710,5329.482782,-82125.437386
1205.956087,-2812.782580,-1184.329507,-82125.437386
1205.958631,-3404.947333,9622.677246,-71553.319513
1205.961174,-4145.153275,296.082377,-77835.302597
1205.963717,-2812.782580,2664.741391,-79520.712692
1205.966261,-2220.617826,7846.182985,-81206.122788
1205.968804,-2368.659014,6217.729913,-83964.066581
1205.971347,-1628.453072,296.082377,-79367.493593
1205.973891,-2368.659014,3404.947333,-75230.577904
1205.976434,-4293.194464,3849.070898,-74464.482406
1205.978978,-6513.812290,6217.729913,-77682.083497
1205.981521,-7254.018232,14804.118840,-80286.808190
1205.984064,-6809.894666,9030.512492,-86722.010374
1205.986608,-8882.471304,3256.906145,-80133.589091
1205.989151,148.041188,6661.853478,-73545.167808
1205.991694,-5625.565159,8142.265362,-72319.415011
1205.994238,-444.123565,0.000000,-79673.931792
1205.996781,-1628.453072,12287.418637,-79367.493593
1205.999324,3108.864956,-7105.977043,-86568.791274
1206.001868,5329.482782,2220.617826,-79673.931792
1206.004411,3256.906145,-3701.029710,-78141.740796
1206.006954,592.164754,2220.617826,-72012.976812
1206.009498,3701.029710,148.041188,-76762.768900
1206.012041,2516.700203,-9030.512492,-82738.313784
1206.014585,7846.182985,-1184.329507,-80133.589091
1206.017128,2812.782580,6365.771101,-77835.302597
1206.019671,-296.082377,-4145.153275,-79367.493593
1206.022215,3701.029710,0.000000,-73391.948708
1206.024758,740.205942,-3404.947333,-78448.178995
1206.027301,-888.247130,-3552.988522,-80593.246390
1206.029845,4737.318029,4293.194464,-79980.369991
1206.032388,5773.606348,-8882.471304,-83351.190182
1206.034931,8290.306550,-5921.647536,-78141.740796
1206.037475,4441.235652,-3552.988522,-75690.235202
1206.040018,5181.441594,-4293.194464,-77988.521696
1206.042561,6809.894666,-4293.194464,-78754.617194
1206.045105,2516.700203,-3701.029710,-82431.875585
1206.047648,-1480.411884,-3552.988522,-80440.027290
1206.050191,1924.535449,3256.906145,-77682.083497
1206.052741,-2812.782580,-6069.688724,-79214.274493
1206.055290,-3552.988522,11547.212695,-74464.482406
1206.057839,-10362.883188,9918.759623,-80899.684589
1206.060389,-1480.411884,-3404.947333,-84883.381178
1206.062938,-2220.617826,7994.224174,-79673.931792
1206.065487,-5921.647536,2516.700203,-81052.903688
1206.068037,-2960.823768,4293.194464,-73238.729609
1206.070586,-5181.441594,6513.812290,-73851.606007
1206.073136,-3108.864956,-296.082377,-82125.437386
1206.075685,1480.411884,5477.523971,-82738.313784
1206.078234,-2072.576638,5773.606348,-83197.971083
1206.080784,-2516.700203,1628.453072,-77375.645298
1206.083333,-2664.741391,7550.100608,-74004.825107
1206.085882,-7254.018232,3256.906145,-75383.797003
1206.088432,-2516.700203,6957.935855,-78601.398095
1206.090981,-9030.512492,9178.553681,-81665.780087
1206.093530,-5625.565159,8290.306550,-84270.504780
1206.096080,-4885.359217,7994.224174,-77682.083497
1206.098629,-4293.194464,4589.276840,-75077.358804
1206.101178,-592.164754,5921.647536,-72166.195912
1206.103728,-2220.617826,2664.741391,-78448.178995
1206.106277,7402.059420,148.041188,-82431.875585
1206.108826,1332.370696,1036.288319,-84117.285680
1206.111376,7105.977043,-7550.100608,-82278.656485
1206.113925,-296.082377,9030.512492,-70787.224015
1206.116474,4293.194464,-3256.906145,-77835.302597
1206.119024,1480.411884,-3701.029710,-76149.892501
1206.121573,7994.224174,-4441.235652,-81665.780087
1206.124122,3404.947333,2220.617826,-81512.560987
1206.126672,2960.823768,-1480.411884,-81818.999186
1206.129221,-4293.194464,5181.441594,-74464.482406
1206.131770,1924.535449,-9326.594869,-78141.740796
1206.134320,2368.659014,148.041188,-75537.016103
1206.136869,4293.194464,2220.617826,-80440.027290
1206.139418,3701.029710,-3404.947333,-81665.780087
1206.141968,4293.194464,-2072.576638,-78754.617194
1206.144517,8586.388927,-10658.965565,-78754.617194
1206.147066,4589.276840,-1332.370696,-75690.235202
1206.149616,6661.853478,-3256.906145,-79673.931792
1206.152165,-444.123565,-1628.453072,-82278.656485
1206.154718,7994.224174,-1924.535449,-80440.027290
1206.157271,-1332.370696,740.205942,-78907.836294
1206.159825,888.247130,-12879.583391,-79827.150892
1206.162378,-6661.853478,23094.425390,-69255.033019
1206.164931,-7254.018232,-1184.329507,-84423.723880
1206.167484,-2368.659014,5477.523971,-77682.083497
1206.170038,2220.617826,3552.988522,-82738.313784
1206.172591,-4589.276840,-4441.235652,-81206.122788
1206.175144,-148.041188,11991.336260,-73238.729609
1206.177697,-6069.688724,8586.388927,-74770.920605
1206.180251,-3849.070898,-1628.453072,-82891.532884
1206.182804,-3404.947333,9622.677246,-79061.055394
1206.185357,-740.205942,1776.494261,-85189.819378
1206.187910,-444.123565,1332.370696,-76915.987999
1206.190464,-2664.741391,-592.164754,-76149.892501
1206.193017,-5921.647536,9918.759623,-72625.853210
1206.195570,-8586.388927,10066.800811,-80286.808190
1206.198124,-9030.512492,6217.729913,-81052.903688
1206.200677,-5329.482782,3997.112087,-82431.875585
1206.203230,-4737.318029,11399.171507,-79367.493593
1206.205783,-5773.606348,9770.718434,-74311.263306
1206.208337,-2368.659014,7402.059420,-75843.454302
1206.210890,-5773.606348,592.164754,-76303.111601
1206.213443,5329.482782,2516.700203,-80899.684589
1206.215996,1184.329507,-3552.988522,-83810.847481
1206.218550,3849.070898,-5181.441594,-81818.999186
1206.221103,2960.823768,10362.883188,-71859.757712
1206.223656,1776.494261,-3849.070898,-77222.426198
1206.226209,5181.441594,-5033.400406,-75996.673402
1206.228763,5773.606348,-4737.318029,-81665.780087
1206.231316,2812.782580,-5477.523971,-83964.066581
1206.233869,3997.112087,6069.688724,-77988.521696
1206.236422,888.247130,2812.782580,-77222.426198
1206.238976,888.247130,-4885.359217,-77375.645298
1206.241529,1184.329507,-148.041188,-76762.768900
1206.244082,3997.112087,-2812.782580,-79214.274493
1206.246635,7994.224174,-3997.112087,-80899.684589
1206.249189,5773.606348,888.247130,-79367.493593
1206.251742,3256.906145,-10214.842000,-81512.560987
1206.254295,5773.606348,-444.123565,-73698.386908
1206.256852,3849.070898,-1036.288319,-76915.987999
1206.259409,1184.329507,-5033.400406,-80899.684589
1206.261965,6365.771101,-4441.235652,-80133.589091
1206.264522,1332.370696,1628.453072,-79673.931792
1206.267079,-3256.906145,-4441.235652,-80286.808190
1206.269636,-4737.318029,17912.983796,-71859.757712
1206.272193,-13175.665768,3701.029710,-81359.341888
1206.274749,-1332.370696,-3256.906145,-80746.465489
1206.277306,1776.494261,7994.224174,-78601.398095
1206.279863,-2960.823768,-1776.494261,-83657.628382
1206.282420,-2516.700203,8586.388927,-73085.510509
1206.284977,-4589.276840,9030.512492,-75230.577904
1206.287533,-3701.029710,-3849.070898,-82738.313784
1206.290090,-5033.400406,6661.853478,-80593.246390
1206.292647,-148.041188,3552.988522,-82278.656485
1206.295204,-888.247130,2960.823768,-77069.207099
1206.297761,-4293.194464,3404.947333,-76609.549800
1206.300317,-7550.100608,7254.018232,-75230.577904
1206.302874,-2960.823768,6957.935855,-79673.931792
1206.305431,-9030.512492,11695.253884,-81665.780087
1206.307988,-6069.688724,2220.617826,-84117.285680
1206.310544,-3256.906145,11251.130318,-75843.454302
1206.313101,-8882.471304,4737.318029,-74924.139704
1206.315658,-148.041188,-444.123565,-76149.892501
1206.318215,-148.041188,14359.995275,-75996.673402
1206.320772,5329.482782,-9918.759623,-87947.763170
1206.323328,12287.418637,-2960.823768,-81665.780087
1206.325885,888.247130,4145.153275,-76456.330700
1206.328442,-888.247130,-1184.329507,-75690.235202
1206.330999,2812.782580,2516.700203,-74311.263306
1206.333556,4589.276840,-9474.636058,-82125.437386
1206.336112,8586.388927,-6217.729913,-79980.369991
1206.338672,1924.535449,5773.606348,-79673.931792
1206.341232,888.247130,1924.535449,-78907.836294
1206.343792,592.164754,2516.700203,-76456.330700
1206.346351,-1036.288319,-7402.059420,-79367.493593
1206.348911,5921.647536,-1332.370696,-76149.892501
1206.351471,5181.441594,3108.864956,-79214.274493
1206.354031,5033.400406,-4441.235652,-82431.875585
1206.356590,4737.318029,-9474.636058,-79827.150892
1206.359150,6809.894666,-5477.523971,-75996.673402
1206.361710,1480.411884,-1480.411884,-78754.617194
1206.364270,1480.411884,-444.123565,-79673.931792
1206.366829,6957.935855,-296.082377,-81052.903688
1206.369389,3997.112087,-148.041188,-79214.274493
1206.371949,-3997.112087,-8586.388927,-80286.808190
1206.374508,-5033.400406,13027.624579,-73698.386908
1206.377068,-11547.212695,9474.636058,-79520.712692
1206.379628,0.000000,-3108.864956,-82431.875585
1206.382188,-2220.617826,10658.965565,-77528.864398
1206.384747,-1480.411884,-6661.853478,-84270.504780
1206.387307,-2516.700203,7846.182985,-74004.825107
1206.389867,-8734.430116,9030.512492,-76762.768900
1206.392427,-5181.441594,2664.741391,-80440.027290
1206.394986,296.082377,3701.029710,-80440.027290
1206.397546,-1332.370696,2960.823768,-81359.341888
1206.400106,-444.123565,2516.700203,-78601.398095
1206.402666,-1184.329507,1480.411884,-76915.987999
1206.405225,-9918.759623,8882.471304,-75537.016103
1206.407785,-6661.853478,7994.224174,-79214.274493
1206.410345,-3256.906145,9474.636058,-80286.808190
1206.412905,-4589.276840,1924.535449,-82431.875585
1206.415464,-1924.535449,5921.647536,-78141.740796
1206.418024,-9030.512492,6365.771101,-76456.330700
1206.420584,296.082377,8142.265362,-76609.549800
1206.423144,-3404.947333,12139.377449,-77682.083497
1206.425703,4145.153275,-16580.613101,-85649.476676
1206.428263,13767.830521,1776.494261,-77835.302597
1206.430823,296.082377,-1628.453072,-81206.122788
1206.433382,-1776.494261,1480.411884,-75690.235202
1206.435942,5329.482782,7105.977043,-74924.139704
1206.438502,1480.411884,-11695.253884,-82891.532884
1206.441064,9918.759623,-3552.988522,-78448.178995
1206.443627,4293.194464,2516.700203,-79673.931792
1206.446189,1924.535449,-1776.494261,-79980.369991
1206.448751,1480.411884,2516.700203,-74158.044206
1206.451314,296.082377,-592.164754,-79367.493593
1206.453876,148.041188,-888.247130,-80440.027290
1206.456438,5329.482782,-5181.441594,-81972.218286
1206.459000,8586.388927,-2220.617826,-78448.178995
1206.461563,8290.306550,-5773.606348,-79367.493593
1206.464125,1184.329507,-296.082377,-76456.330700
1206.466687,6957.935855,-5773.606348,-77069.207099
1206.469250,4293.194464,1776.494261,-78294.959896
1206.471812,7402.059420,-5477.523971,-83044.751983
1206.474374,1184.329507,444.123565,-80899.684589
1206.476937,-4885.359217,296.082377,-78754.617194
1206.479499,-5181.441594,12287.418637,-75537.016103
1206.482061,-9030.512492,10955.047942,-77682.083497
1206.484624,-1924.535449,-7105.977043,-83351.190182
1206.487186,-148.041188,888.247130,-80440.027290
1206.489748,-1628.453072,5773.606348,-80133.589091
1206.492310,-4441.235652,7550.100608,-77222.426198
1206.494873,-6661.853478,5773.606348,-75690.235202
1206.497435,-4145.153275,592.164754,-80593.246390
1206.499997,592.164754,4441.235652,-80440.027290
1206.502560,1924.535449,2516.700203,-81818.999186
1206.505122,-3108.864956,1776.494261,-78141.740796
1206.507684,-4737.318029,4737.318029,-77375.645298
1206.510247,-7550.100608,11695.253884,-76456.330700
1206.512809,-7698.141797,4885.359217,-81512.560987
1206.515371,-4885.359217,5921.647536,-79980.369991
1206.517934,-3108.864956,9770.718434,-79980.369991
1206.520496,-4885.359217,1036.288319,-79673.931792
1206.523058,-2812.782580,8142.265362,-73698.386908
1206.525620,-4737.318029,444.123565,-77375.645298
1206.528183,1480.411884,12287.418637,-77835.302597
1206.530745,1036.288319,-2516.700203,-82278.656485
1206.533307,10214.842000,-13619.789333,-84270.504780
1206.535870,1332.370696,12139.377449,-69561.471218
1206.538432,2220.617826,1924.535449,-78141.740796
1206.540994,3997.112087,-2072.576638,-75537.016103
1206.543552,7402.059420,-7254.018232,-82278.656485
1206.546116,3552.988522,-6809.894666,-81818.999186
1206.548680,1036.288319,7550.100608,-77528.864398
1206.551244,888.247130,-1036.288319,-78448.178995
1206.553808,148.041188,-2368.659014,-75077.358804
1206.556372,3552.988522,-1776.494261,-77069.207099
1206.558936,3849.070898,3552.988522,-77835.302597
1206.561500,5329.482782,-3849.070898,-83197.971083
1206.564064,5329.482782,-6661.853478,-79827.150892
1206.566628,7698.141797,-6513.812290,-78141.740796
1206.569192,6661.853478,-2960.823768,-77069.207099
1206.571756,592.164754,-148.041188,-77988.521696
1206.574320,5329.482782,4441.235652,-80440.027290
1206.576884,740.205942,-12139.377449,-82125.437386
1206.579448,7402.059420,-2812.782580,-76149.892501
1206.582012,-10955.047942,15544.324782,-75383.797003
1206.584576,-7698.141797,-2960.823768,-84730.162079
1206.587140,-3849.070898,14656.077652,-74464.482406
1206.589704,-148.041188,-3552.988522,-85343.038477
1206.592268,-4885.359217,-2368.659014,-79214.274493
1206.594832,-1036.288319,10658.965565,-75383.797003
1206.597396,-8586.388927,7698.141797,-77682.083497
1206.599960,-3701.029710,5181.441594,-78601.398095
1206.602524,-6809.894666,888.247130,-80746.465489
1206.605088,-1184.329507,-2812.782580,-82585.094684
1206.607652,2220.617826,4293.194464,-76456.330700
1206.610216,-3256.906145,6365.771101,-75537.016103
1206.612780,-7105.977043,7550.100608,-76609.549800
1206.615344,-11547.212695,6365.771101,-80593.246390
1206.617908,-6365.771101,7846.182985,-81665.780087
1206.620472,-3997.112087,5625.565159,-81359.341888
1206.623036,-888.247130,-2812.782580,-79367.493593
1206.625600,-6513.812290,10510.924376,-73698.386908
1206.628164,-3997.112087,4737.318029,-76149.892501
1206.630728,-3701.029710,12583.501014,-77222.426198
1206.633292,7254.018232,-13027.624579,-84730.162079
1206.635856,7254.018232,-2368.659014,-81052.903688
1206.638420,1480.411884,3256.906145,-76762.768900
1206.640984,148.041188,148.041188,-76915.987999
1206.643548,3997.112087,3997.112087,-73238.729609
1206.646114,3552.988522,-5625.565159,-81359.341888
1206.648679,6513.812290,-9030.512492,-82278.656485
1206.651245,3849.070898,3256.906145,-78294.959896
1206.653811,-1480.411884,-148.041188,-80286.808190
1206.656376,1332.370696,6365.771101,-74770.920605
1206.658942,1776.494261,-6217.729913,-80746.465489
1206.661507,1628.453072,-1184.329507,-77375.645298
1206.664073,3552.988522,-444.123565,-79673.931792
1206.666639,6069.688724,-3849.070898,-78754.617194
1206.669204,7994.224174,-10510.924376,-79367.493593
1206.671770,4885.359217,2812.782580,-75843.454302
1206.674335,-888.247130,-1480.411884,-81512.560987
1206.676901,8882.471304,-740.205942,-80133.589091
1206.679467,1332.370696,-7402.059420,-79520.712692
1206.682032,6957.935855,-9178.553681,-79214.274493
1206.684598,-8438.347739,18061.024985,-72625.853210
1206.687163,-9622.677246,6661.853478,-80899.684589
1206.689729,-8438.347739,19689.478057,-74464.482406
1206.692295,-444.123565,-2664.741391,-85189.819378
1206.694860,-1776.494261,-9030.512492,-81052.903688
1206.697426,-2516.700203,12583.501014,-73851.606007
1206.699992,-8586.388927,10658.965565,-76915.987999
1206.702557,-3997.112087,3701.029710,-78907.836294
1206.705123,-7994.224174,2960.823768,-79980.369991
1206.707688,740.205942,-740.205942,-83657.628382
1206.710254,1332.370696,1776.494261,-80899.684589
1206.712820,-4441.235652,2072.576638,-76762.768900
1206.715385,-8142.265362,13767.830521,-73391.948708
1206.717951,-8734.430116,10362.883188,-79214.274493
1206.720516,-6069.688724,0.000000,-83197.971083
1206.723082,-148.041188,5181.441594,-79827.150892
1206.725648,-4293.194464,6661.853478,-79673.931792
1206.728213,-4441.235652,10658.965565,-75537.016103
1206.730779,-5625.565159,3256.906145,-76456.330700
1206.733344,-888.247130,2072.576638,-76303.111601
1206.735910,6809.894666,-10510.924376,-82891.532884
1206.738476,9918.759623,-7994.224174,-81052.903688
1206.741041,4293.194464,8438.347739,-75077.358804
1206.743607,592.164754,4145.153275,-77682.083497
1206.746173,1924.535449,-740.205942,-78448.178995
1206.748705,7105.977043,-5329.482782,-80286.808190
1206.751238,4145.153275,-9770.718434,-82278.656485
1206.753771,3701.029710,1776.494261,-76915.987999
1206.756303,-1776.494261,6661.853478,-77528.864398
1206.758836,-2368.659014,1036.288319,-78294.959896
1206.761369,3552.988522,-444.123565,-79980.369991
1206.763901,3256.906145,-3997.112087,-79520.712692
1206.766434,11991.336260,-9770.718434,-79061.055394
1206.768967,9918.759623,-1628.453072,-76915.987999
1206.771500,4589.276840,-4589.276840,-79367.493593
1206.774032,-1184.329507,-3997.112087,-79520.712692
1206.776565,2960.823768,3997.112087,-80746.465489
1206.779098,2664.741391,-9178.553681,-82125.437386
1206.781630,8734.430116,-888.247130,-77988.521696
1206.784163,-7105.977043,-1480.411884,-76609.549800
1206.786696,-5033.400406,18061.024985,-73238.729609
1206.789229,-13471.748144,13175.665768,-79367.493593
1206.791761,-3256.906145,-8142.265362,-85343.038477
1206.794294,1924.535449,2516.700203,-79980.369991
1206.796827,-2812.782580,4589.276840,-80899.684589
1206.799359,-5773.606348,9178.553681,-76303.111601
1206.801892,-3701.029710,8290.306550,-74924.139704
1206.804425,-2960.823768,-592.164754,-80440.027290
1206.806958,740.205942,2664.741391,-81512.560987
1206.809490,1184.329507,-1776.494261,-83504.409282
1206.812023,-3108.864956,3404.947333,-76762.768900
1206.814556,-5181.441594,13619.789333,-75230.577904
1206.817088,-12287.418637,10510.924376,-77375.645298
1206.819621,-6069.688724,3849.070898,-80286.808190
1206.822154,-2368.659014,740.205942,-80899.684589
1206.824686,592.164754,1480.411884,-81512.560987
1206.827219,-8734.430116,13027.624579,-75537.016103
1206.829752,-7698.141797,8586.388927,-78754.617194
1206.832285,-5033.400406,8734.430116,-75996.673402
1206.834817,8586.388927,-16432.571912,-83197.971083
1206.837350,7105.977043,-7402.059420,-78754.617194
1206.839883,5773.606348,2664.741391,-80593.246390
1206.842415,-2516.700203,-740.205942,-78141.740796
1206.844948,2812.782580,5921.647536,-75077.358804
1206.847481,888.247130,-6217.729913,-81206.122788
1206.850021,9178.553681,-14063.912898,-81665.780087
1206.852562,5625.565159,3404.947333,-74770.920605
1206.855102,2072.576638,2220.617826,-79214.274493
1206.857643,740.205942,2960.823768,-75996.673402
1206.860184,2368.659014,2220.617826,-78907.836294
1206.862724,2516.700203,-7698.141797,-82891.532884
1206.865265,10807.006753,-7698.141797,-79673.931792
1206.867805,9030.512492,-1776.494261,-77528.864398
1206.870346,4293.194464,-2664.741391,-78601.398095
1206.872886,3256.906145,1628.453072,-76149.892501
1206.875427,-1036.288319,148.041188,-78907.836294
1206.877967,9770.718434,-8290.306550,-82585.094684
1206.880508,9918.759623,3552.988522,-77375.645298
1206.883048,-5625.565159,-6069.688724,-81972.218286
1206.885589,-5773.606348,21614.013506,-72319.415011
1206.888130,-20873.807564,18949.272115,-77222.426198
1206.890670,740.205942,-14656.077652,-84730.162079
1206.893211,4589.276840,8586.388927,-76762.768900
1206.895751,-1776.494261,-4293.194464,-85343.038477
1206.898292,-6513.812290,14359.995275,-74311.263306
1206.900832,-7846.182985,12435.459826,-75230.577904
1206.903373,-4145.153275,-2812.782580,-81818.999186
1206.905913,296.082377,2220.617826,-79061.055394
1206.908454,148.041188,740.205942,-80746.465489
1206.910994,-2664.741391,3552.988522,-77222.426198
1206.913535,-4737.318029,14211.954086,-74004.825107
1206.916076,-10362.883188,8290.306550,-79214.274493
1206.918616,-7994.224174,4589.276840,-80746.465489
1206.921157,-2812.782580,148.041188,-81665.780087
1206.923697,740.205942,5773.606348,-79827.150892
1206.926238,-9622.677246,9030.512492,-77835.302597
1206.928778,-4737.318029,5033.400406,-73698.386908
1206.931319,-1628.453072,13323.706956,-73851.606007
1206.933859,7550.100608,-14656.077652,-84270.504780
1206.936400,14952.160028,-6661.853478,-81359.341888
1206.938940,5477.523971,-1184.329507,-80746.465489
1206.941481,-1036.288319,4589.276840,-75077.358804
1206.944022,-1628.453072,10066.800811,-73238.729609
1206.946562,5181.441594,-13915.871710,-82431.875585
1206.949103,9474.636058,-10066.800811,-79061.055394
1206.951649,5477.523971,-296.082377,-79827.150892
1206.954196,-888.247130,3256.906145,-78601.398095
1206.956742,-148.041188,5773.606348,-75690.235202
1206.959288,1184.329507,-2516.700203,-80133.589091
1206.961835,3849.070898,-8586.388927,-80593.246390
1206.964381,8586.388927,-7402.059420,-79214.274493
1206.966928,8290.306550,-1628.453072,-76762.768900
1206.969474,7994.224174,-888.247130,-79367.493593
1206.972021,2516.700203,-5921.647536,-76762.768900
1206.974567,4293.194464,4145.153275,-77528.864398
1206.977113,888.247130,-5625.565159,-82891.532884
1206.979660,12287.418637,-3701.029710,-82585.094684
1206.982206,-5329.482782,-4737.318029,-77682.083497
1206.984753,-6365.771101,19245.354492,-71706.538613
1206.987299,-12731.542202,20281.642811,-72472.634111
1206.989846,-148.041188,-9918.759623,-89326.735067
1206.992392,148.041188,-2072.576638,-80440.027290
1206.994938,740.205942,6069.688724,-79827.150892
1206.997485,-9622.677246,12287.418637,-75383.797003
1207.000031,-4293.194464,9474.636058,-75843.454302
1207.002578,-2664.741391,-148.041188,-80440.027290
1207.005124,1184.329507,-888.247130,-81052.903688
1207.007671,-2664.741391,296.082377,-80746.465489
1207.010217,-6661.853478,7698.141797,-76303.111601
1207.012763,-6365.771101,10955.047942,-75996.673402
1207.015310,-6513.812290,9326.594869,-77835.302597
1207.017856,-9770.718434,3701.029710,-81665.780087
1207.020403,-4293.194464,3404.947333,-81206.122788
1207.022949,-888.247130,592.164754,-79673.931792
1207.025496,-7254.018232,13619.789333,-74158.044206
1207.028042,-6957.935855,4589.276840,-76609.549800
1207.030588,1776.494261,5625.565159,-77528.864398
1207.033135,7994.224174,-12139.377449,-85189.819378
1207.035681,6661.853478,-13767.830521,-81512.560987
1207.038228,7105.977043,5477.523971,-75843.454302
1207.040774,-3256.906145,8290.306550,-75077.358804
1207.043321,592.164754,-1628.453072,-77069.207099
1207.045867,8734.430116,-9178.553681,-80899.684589
1207.048414,7550.100608,-13619.789333,-82738.313784
1207.050960,4441.235652,4589.276840,-77988.521696
1207.053511,-2220.617826,7550.100608,-77988.521696
1207.056063,-444.123565,2220.617826,-77682.083497
1207.058614,7254.018232,-6069.688724,-79673.931792
1207.061166,7846.182985,-4293.194464,-79520.712692
1207.063717,8142.265362,-10658.965565,-81665.780087
1207.066269,1924.535449,-2812.782580,-75537.016103
1207.068820,3552.988522,740.205942,-75996.673402
1207.071372,0.000000,2220.617826,-78448.178995
1207.073923,8142.265362,-2812.782580,-82585.094684
1207.076474,3552.988522,-5181.441594,-83044.751983
1207.079026,4589.276840,-13915.871710,-81512.560987
1207.081577,-11991.336260,24574.837274,-70021.128517
1207.084129,-14359.995275,8882.471304,-78754.617194
1207.086680,-4145.153275,10362.883188,-76149.892501
1207.089232,1924.535449,-3256.906145,-85189.819378
1207.091783,-296.082377,-5625.565159,-83044.751983
1207.094335,-5329.482782,10510.924376,-75690.235202
1207.096886,-9178.553681,14063.912898,-73085.510509
1207.099437,-4589.276840,3108.864956,-79520.712692
1207.101989,-1628.453072,592.164754,-80746.465489
1207.104540,592.164754,-5477.523971,-84117.285680
1207.107092,-2960.823768,5921.647536,-76456.330700
1207.109643,-8438.347739,13767.830521,-75843.454302
1207.112195,-8438.347739,9178.553681,-76609.549800
1207.114746,-8438.347739,7402.059420,-79061.055394
1207.117298,-6217.729913,1480.411884,-82585.094684
1207.119849,888.247130,3997.112087,-80899.684589
1207.122400,-6661.853478,10214.842000,-77222.426198
1207.124952,-7254.018232,4293.194464,-75230.577904
1207.127503,-1184.329507,13619.789333,-72932.291410
1207.130055,3256.906145,-14952.160028,-84730.162079
1207.132606,11695.253884,-11399.171507,-81972.218286
1207.135158,5477.523971,-148.041188,-80440.027290
1207.137709,-2368.659014,3404.947333,-77682.083497
1207.140261,-1036.288319,7254.018232,-74158.044206
1207.142812,1332.370696,-4885.359217,-79520.712692
1207.145363,7994.224174,-12731.542202,-81512.560987
1207.147915,6809.894666,-1924.535449,-77988.521696
1207.150466,-740.205942,6365.771101,-77375.645298
1207.153018,-888.247130,8734.430116,-77375.645298
1207.155574,3552.988522,-2368.659014,-80899.684589
1207.158129,10066.800811,-10955.047942,-81818.999186
1207.160685,11695.253884,-13027.624579,-79827.150892
1207.163241,2516.700203,-1480.411884,-74464.482406
1207.165797,2812.782580,0.000000,-75996.673402
1207.168353,-1036.288319,9474.636058,-76456.330700
1207.170908,9770.718434,-8142.265362,-84423.723880
1207.173464,5921.647536,-5181.441594,-83044.751983
1207.176020,4885.359217,-14063.912898,-81052.903688
1207.178576,-5773.606348,22946.384202,-71400.100414
1207.181132,-16136.489536,18653.189738,-76915.987999
1207.183687,-7550.100608,-1332.370696,-78907.836294
1207.186243,3552.988522,-1036.288319,-78907.836294
1207.188799,1332.370696,-4145.153275,-84883.381178
1207.191355,-1776.494261,12139.377449,-76915.987999
1207.193911,-6365.771101,15988.448347,-76149.892501
1207.196467,-6809.894666,3849.070898,-78754.617194
1207.199022,-592.164754,-592.164754,-79061.055394
1207.201578,1184.329507,-9474.636058,-83351.190182
1207.204134,-3108.864956,3404.947333,-77069.207099
1207.206690,-8438.347739,16284.530724,-77069.207099
1207.209246,-8586.388927,16580.613101,-78754.617194
1207.211801,-8882.471304,3552.988522,-81818.999186
1207.214357,-2664.741391,-740.205942,-80746.465489
1207.216913,444.123565,-740.205942,-79673.931792
1207.219469,444.123565,9030.512492,-76149.892501
1207.222025,-11547.212695,13471.748144,-74924.139704
1207.224580,-2072.576638,5181.441594,-77835.302597
1207.227136,7402.059420,-11399.171507,-82431.875585
1207.229692,12583.501014,-14656.077652,-84730.162079
1207.232248,3701.029710,6661.853478,-75843.454302
1207.234804,1924.535449,7402.059420,-76303.111601
1207.237359,-592.164754,1480.411884,-75383.797003
1207.239915,1776.494261,-6661.853478,-79673.931792
1207.242471,5921.647536,-11991.336260,-82278.656485
1207.245027,4293.194464,-3701.029710,-80440.027290
1207.247583,1776.494261,9178.553681,-77222.426198
1207.250139,-2812.782580,5921.647536,-77988.521696
1207.252694,1924.535449,-3701.029710,-78754.617194
1207.255250,12287.418637,-9474.636058,-79520.712692
1207.257776,13619.789333,-11251.130318,-78754.617194
1207.260303,2960.823768,-5033.400406,-77988.521696
1207.262829,-1036.288319,9030.512492,-75537.016103
1207.265355,-2220.617826,5181.441594,-81052.903688
1207.267881,5625.565159,-12879.583391,-81052.903688
1207.270407,8734.430116,-6957.935855,-79980.369991
1207.272934,-2072.576638,-12139.377449,-82125.437386
1207.275460,-4441.235652,25315.043216,-70940.443115
1207.277986,-22502.260637,23686.590144,-77682.083497
1207.280512,-6217.729913,-7550.100608,-82431.875585
1207.283039,5329.482782,1776.494261,-79061.055394
1207.285565,1924.535449,1332.370696,-79520.712692
1207.288091,-5625.565159,9326.594869,-77528.864398
1207.290617,-7550.100608,18061.024985,-73391.948708
1207.293143,-4441.235652,296.082377,-83044.751983
1207.295670,0.000000,-3849.070898,-82278.656485
1207.298196,-1332.370696,-2072.576638,-80899.684589
1207.300722,-3404.947333,3108.864956,-77682.083497
1207.303248,-9178.553681,18801.230927,-72472.634111
1207.305775,-14508.036463,13471.748144,-77988.521696
1207.308301,-4293.194464,8438.347739,-80133.589091
1207.310827,1036.288319,148.041188,-82891.532884
1207.313353,-3701.029710,-5033.400406,-82585.094684
1207.315880,-6217.729913,15396.283594,-72166.195912
1207.318406,-9622.677246,19541.436869,-73698.386908
1207.320932,2664.741391,-8586.388927,-81206.122788
1207.323458,12139.377449,-10066.800811,-79827.150892
1207.325984,10214.842000,-15544.324782,-86415.572174
1207.328511,2664.741391,-296.082377,-78601.398095
1207.331037,1628.453072,12139.377449,-75537.016103
1207.333563,-1480.411884,2220.617826,-78141.740796
1207.336089,6957.935855,-12583.501014,-79673.931792
1207.338616,5033.400406,-6661.853478,-76915.987999
1207.341142,2072.576638,-1628.453072,-79367.493593
1207.343668,740.205942,9770.718434,-76915.987999
1207.346194,-592.164754,2664.741391,-81512.560987
1207.348720,6661.853478,-4589.276840,-81818.999186
1207.351247,8142.265362,-11103.089130,-80440.027290
1207.353773,12435.459826,-17024.736666,-78448.178995
1207.356299,4293.194464,5921.647536,-72012.976812
1207.358835,-3849.070898,4293.194464,-79061.055394
1207.361370,5477.523971,7105.977043,-79980.369991
1207.363906,3108.864956,-8290.306550,-85189.819378
1207.366441,7550.100608,-19393.395680,-84576.942979
1207.368977,-6365.771101,27979.784608,-70327.566716
1207.371512,-11251.130318,8586.388927,-80133.589091
1207.374048,-6809.894666,16284.530724,-71400.100414
1207.376583,-1628.453072,-3108.864956,-82738.313784
1207.379119,-740.205942,-9030.512492,-82585.094684
1207.381654,2812.782580,6513.812290,-77528.864398
1207.384190,-5773.606348,13027.624579,-78141.740796
1207.386726,-7105.977043,11991.336260,-78601.398095
1207.389261,-2960.823768,2960.823768,-79367.493593
1207.391797,-2664.741391,-5625.565159,-81359.341888
1207.394332,-2960.823768,444.123565,-77222.426198
1207.396868,-7402.059420,12435.459826,-74158.044206
1207.399403,-8290.306550,15840.407159,-77069.207099
1207.401939,-6365.771101,9326.594869,-83044.751983
1207.404474,-2220.617826,1332.370696,-83964.066581
1207.407010,-4441.235652,-6217.729913,-80899.684589
1207.409545,-740.205942,9474.636058,-73238.729609
1207.412081,-10362.883188,16728.654289,-74311.263306
1207.414616,1184.329507,740.205942,-76915.987999
1207.417152,1036.288319,-4145.153275,-79520.712692
1207.419687,11991.336260,-18801.230927,-88407.420469
1207.422223,4737.318029,4885.359217,-76762.768900
1207.424759,1480.411884,7846.182985,-78141.740796
1207.427294,-2220.617826,3404.947333,-74770.920605
1207.429830,5181.441594,-6957.935855,-78141.740796
1207.432365,3849.070898,-11695.253884,-79214.274493
1207.434901,5921.647536,-740.205942,-78907.836294
1207.437436,444.123565,4293.194464,-79367.493593
1207.439972,-888.247130,5625.565159,-79520.712692
1207.442507,6069.688724,1036.288319,-79520.712692
1207.445043,12435.459826,-13323.706956,-80133.589091
1207.447578,7254.018232,-10658.965565,-77069.207099
1207.450114,6513.812290,-3701.029710,-75230.577904
1207.452649,-1036.288319,3404.947333,-75996.673402
1207.455185,3849.070898,10807.006753,-79061.055394
1207.457721,-444.123565,-9030.512492,-86875.229473
1207.460264,7846.182985,-17764.942608,-83044.751983
1207.462807,-6069.688724,16432.571912,-73851.606007
1207.465351,-9030.512492,7550.100608,-77222.426198
1207.467894,-11251.130318,24278.754898,-69408.252119
1207.470437,-148.041188,2664.741391,-79827.150892
1207.472981,1776.494261,-13619.789333,-87488.105872
1207.475524,-444.123565,11695.253884,-75383.797003
1207.478067,-5033.400406,11991.336260,-78294.959896
1207.480611,-9178.553681,7846.182985,-77988.521696
1207.483154,-1776.494261,2812.782580,-79061.055394
1207.485697,888.247130,-5773.606348,-81818.999186
1207.488241,-3701.029710,592.164754,-78141.740796
1207.490784,-7846.182985,11695.253884,-75690.235202
1207.493327,-9622.677246,13619.789333,-76303.111601
1207.495871,-6809.894666,15840.407159,-78448.178995
1207.498414,-148.041188,3404.947333,-82738.313784
1207.500957,-2516.700203,-8586.388927,-84423.723880
1207.503501,-740.205942,8586.388927,-73238.729609
1207.506044,-11103.089130,21465.972318,-71859.757712
1207.508587,5033.400406,-8290.306550,-78601.398095
1207.511131,3552.988522,-2220.617826,-77682.083497
1207.513674,11547.212695,-22798.343014,-88713.858668
1207.516218,6957.935855,3997.112087,-77528.864398
1207.518761,2368.659014,6365.771101,-79367.493593
1207.521304,-1924.535449,4441.235652,-77222.426198
1207.523848,4589.276840,-7994.224174,-77375.645298
1207.526391,6217.729913,-13323.706956,-79367.493593
1207.528934,5033.400406,-888.247130,-77988.521696
1207.531478,-2664.741391,10214.842000,-78141.740796
1207.534021,148.041188,5477.523971,-81512.560987
1207.536564,7105.977043,-5329.482782,-79980.369991
1207.539108,10807.006753,-12879.583391,-81052.903688
1207.541651,11547.212695,-10214.842000,-78141.740796
1207.544200,3256.906145,-6217.729913,-76149.892501
1207.546750,-2220.617826,9622.677246,-72779.072310
1207.549300,3701.029710,-1776.494261,-79673.931792
1207.551849,8882.471304,-4885.359217,-83964.066581
1207.554399,1036.288319,-15248.242405,-85189.819378
1207.556949,-1628.453072,22946.384202,-73391.948708
1207.559498,-21021.848753,20577.725188,-75690.235202
1207.562048,-6365.771101,592.164754,-77528.864398
1207.564598,1628.453072,444.123565,-77528.864398
1207.567147,-592.164754,-7846.182985,-85496.257577
1207.569697,-1776.494261,10807.006753,-78907.836294
1207.572247,-5033.400406,17172.777854,-77528.864398
1207.574796,-7254.018232,3997.112087,-78601.398095
1207.577346,1628.453072,-592.164754,-79214.274493
1207.579896,-1924.535449,-4441.235652,-80593.246390
1207.582445,-6809.894666,-1628.453072,-77835.302597
1207.584995,-10658.965565,21465.972318,-72779.072310
1207.587545,-10955.047942,18061.024985,-80286.808190
1207.590094,-5181.441594,3849.070898,-82585.094684
1207.592644,2960.823768,-3552.988522,-81052.903688
1207.595194,-1924.535449,1480.411884,-80133.589091
1207.597743,-6069.688724,8882.471304,-75383.797003
1207.600293,-1332.370696,10066.800811,-73391.948708
1207.602843,2960.823768,-6365.771101,-79520.712692
1207.605392,11399.171507,-18209.066173,-84423.723880
1207.607942,6217.729913,-1628.453072,-78907.836294
1207.610492,6217.729913,6809.894666,-79520.712692
1207.613041,-296.082377,4737.318029,-77069.207099
1207.615591,1184.329507,-6217.729913,-77375.645298
1207.618141,1480.411884,-7254.018232,-76149.892501
1207.620690,6365.771101,-8586.388927,-78754.617194
1207.623240,2960.823768,1776.494261,-79520.712692
1207.625790,-3256.906145,7402.059420,-78601.398095
1207.628339,4145.153275,4145.153275,-79673.931792
1207.630889,10362.883188,-9030.512492,-79980.369991
1207.633439,10955.047942,-15248.242405,-77988.521696
1207.635988,8438.347739,-9030.512492,-74924.139704
1207.638538,-1184.329507,4737.318029,-75537.016103
1207.641088,3849.070898,11251.130318,-79520.712692
1207.643642,888.247130,-3404.947333,-85189.819378
1207.646197,3997.112087,-21762.054695,-85036.600278
1207.648751,-3404.947333,20281.642811,-72319.415011
1207.651306,-12583.501014,13175.665768,-77835.302597
1207.653860,-5181.441594,11103.089130,-73698.386908
1207.656414,-1776.494261,4885.359217,-76915.987999
1207.658969,-1036.288319,-6661.853478,-84730.162079
1207.661523,-148.041188,8438.347739,-77528.864398
1207.664078,-4441.235652,11843.295072,-77682.083497
1207.666632,-6957.935855,7105.977043,-78754.617194
1207.669187,-592.164754,2960.823768,-79214.274493
1207.671741,-2960.823768,-7994.224174,-82585.094684
1207.674296,-4145.153275,3108.864956,-75996.673402
1207.676850,-7254.018232,9622.677246,-77375.645298
1207.679404,-10066.800811,14211.954086,-76456.330700
1207.681959,-7846.182985,19393.395680,-78907.836294
1207.684513,-4441.235652,-888.247130,-83810.847481
1207.687068,1628.453072,-2664.741391,-81206.122788
1207.689622,-3997.112087,9178.553681,-74311.263306
1207.692177,-1184.329507,5477.523971,-74311.263306
1207.694731,1036.288319,2220.617826,-75690.235202
1207.697286,12435.459826,-15544.324782,-83504.409282
1207.699840,6957.935855,-9622.677246,-81052.903688
1207.702394,8290.306550,3404.947333,-79520.712692
1207.704949,-3256.906145,5921.647536,-78448.178995
1207.707503,2368.659014,-1628.453072,-78754.617194
1207.710058,2664.741391,-5329.482782,-76149.892501
1207.712612,4441.235652,-8290.306550,-78754.617194
1207.715167,-1776.494261,3404.947333,-77835.302597
1207.717721,-888.247130,6661.853478,-77988.521696
1207.720276,5477.523971,2220.617826,-80593.246390
1207.722830,7698.141797,-8290.306550,-81206.122788
1207.725384,11547.212695,-15100.201217,-80440.027290
1207.727939,6217.729913,-3404.947333,-74924.139704
1207.730493,740.205942,-3404.947333,-77069.207099
1207.733048,4441.235652,7846.182985,-76303.111601
1207.735602,6069.688724,5625.565159,-79367.493593
1207.738157,888.247130,-23390.507767,-89173.515967
1207.740711,-1184.329507,21910.095883,-72319.415011
1207.743266,-14359.995275,15544.324782,-77375.645298
1207.745824,-7402.059420,6069.688724,-75383.797003
1207.748383,-1776.494261,4145.153275,-77069.207099
1207.750941,-296.082377,-11695.253884,-84730.162079
1207.753500,-148.041188,11547.212695,-76456.330700
1207.756059,-5921.647536,9622.677246,-78907.836294
1207.758617,-5625.565159,6957.935855,-78907.836294
1207.761176,-3552.988522,7698.141797,-78294.959896
1207.763735,-3552.988522,-6365.771101,-82738.313784
1207.766293,-1184.329507,1924.535449,-77222.426198
1207.768852,-6513.812290,14952.160028,-75690.235202
1207.771411,-16136.489536,17024.736666,-77222.426198
1207.773969,-6809.894666,6957.935855,-79673.931792
1207.776528,-740.205942,0.000000,-81206.122788
1207.779087,-444.123565,1184.329507,-82891.532884
1207.781645,-3701.029710,5773.606348,-77988.521696
1207.784204,-3108.864956,11547.212695,-73238.729609
1207.786762,1480.411884,-6957.935855,-78294.959896
1207.789321,7698.141797,-15988.448347,-80746.465489
1207.791880,5773.606348,-2368.659014,-79367.493593
1207.794438,7402.059420,1480.411884,-81972.218286
1207.796997,-444.123565,6809.894666,-79367.493593
1207.799556,-740.205942,-1332.370696,-78907.836294
1207.802114,4737.318029,-7698.141797,-76762.768900
1207.804673,2516.700203,-8734.430116,-77069.207099
