#time,accel_x,accel_y,accel_z
1706.482427,-1036.288319,3404.947333,-80440.027290
1706.484818,592.164754,2220.617826,-79367.493593
1706.487209,740.205942,444.123565,-78907.836294
1706.489600,1332.370696,-444.123565,-77222.426198
1706.491991,-1480.411884,-296.082377,-77988.521696
1706.494382,-1036.288319,1184.329507,-78141.740796
1706.496773,-888.247130,2220.617826,-79827.150892
1706.499164,1924.535449,2812.782580,-81512.560987
1706.501555,-148.041188,2516.700203,-80899.684589
1706.503946,-296.082377,1332.370696,-78601.398095
1706.506337,-740.205942,-296.082377,-76915.987999
1706.508728,-2664.741391,888.247130,-77835.302597
1706.511119,-1628.453072,1480.411884,-78448.178995
1706.513510,1480.411884,2072.576638,-80593.246390
1706.515901,740.205942,2812.782580,-81052.903688
1706.518292,-1036.288319,888.247130,-79980.369991
1706.520683,-740.205942,1776.494261,-77528.864398
1706.523074,3849.070898,-2368.659014,-78294.959896
1706.525465,4145.153275,-6809.894666,-77528.864398
1706.527856,9474.636058,-1036.288319,-78141.740796
1706.530247,-1332.370696,3849.070898,-79367.493593
1706.532638,0.000000,-296.082377,-82125.437386
1706.535029,1036.288319,4145.153275,-78448.178995
1706.537481,1036.288319,-1480.411884,-79980.369991
1706.539932,5181.441594,-8734.430116,-76456.330700
1706.542384,2220.617826,6069.688724,-73698.386908
1706.544836,0.000000,-1628.453072,-81359.341888
1706.547287,2664.741391,3701.029710,-79520.712692
1706.549739,740.205942,-5329.482782,-82585.094684
1706.552191,-2072.576638,6365.771101,-78754.617194
1706.554643,-2960.823768,0.000000,-80286.808190
1706.557094,-3404.947333,5625.565159,-76609.549800
1706.559546,-3849.070898,9326.594869,-76149.892501
1706.561998,-5033.400406,-1628.453072,-80899.684589
1706.564450,1184.329507,-296.082377,-79520.712692
1706.566901,-3404.947333,6513.812290,-80286.808190
1706.569353,-2220.617826,-1776.494261,-83197.971083
1706.571805,-2072.576638,10362.883188,-74311.263306
1706.574257,-4737.318029,1776.494261,-78907.836294
1706.576708,-740.205942,-1184.329507,-76915.987999
1706.579160,1776.494261,8438.347739,-75996.673402
1706.581612,-5181.441594,296.082377,-81972.218286
1706.584064,296.082377,2516.700203,-80593.246390
1706.586515,592.164754,8882.471304,-77835.302597
1706.588967,-1332.370696,1628.453072,-80286.808190
1706.591419,-2072.576638,1924.535449,-76762.768900
1706.593871,-1628.453072,-1628.453072,-77988.521696
1706.596322,-4441.235652,3404.947333,-77222.426198
1706.598774,-5625.565159,8438.347739,-79061.055394
1706.601226,-3701.029710,10510.924376,-79980.369991
1706.603677,-296.082377,8734.430116,-79214.274493
1706.606129,-2368.659014,-4589.276840,-80746.465489
1706.608581,-1332.370696,3701.029710,-76303.111601
1706.611033,-10362.883188,5033.400406,-77835.302597
1706.613484,-3849.070898,7105.977043,-79980.369991
1706.615936,-1480.411884,5921.647536,-77835.302597
1706.618388,-1480.411884,3256.906145,-81206.122788
1706.620840,-4441.235652,-3256.906145,-81052.903688
1706.623291,148.041188,12435.459826,-76915.987999
1706.625743,-296.082377,-6809.894666,-78601.398095
1706.628195,-1184.329507,10066.800811,-72932.291410
1706.630647,-5477.523971,592.164754,-80899.684589
1706.633098,5329.482782,-2664.741391,-80746.465489
1706.635592,5033.400406,-592.164754,-78907.836294
1706.638086,1924.535449,-5329.482782,-82278.656485
1706.640579,3404.947333,7994.224174,-73085.510509
1706.643073,-2220.617826,1184.329507,-77375.645298
1706.645566,6661.853478,-19097.313304,-81359.341888
1706.648060,0.000000,9030.512492,-75690.235202
1706.650554,-1480.411884,-3997.112087,-86415.572174
1706.653047,1924.535449,5921.647536,-75230.577904
1706.655541,148.041188,2960.823768,-79673.931792
1706.658035,296.082377,-10214.842000,-77375.645298
1706.660528,3108.864956,1924.535449,-75996.673402
1706.663022,296.082377,2368.659014,-78907.836294
1706.665515,296.082377,1036.288319,-81052.903688
1706.668009,-888.247130,5033.400406,-79520.712692
1706.670503,-3108.864956,-3701.029710,-79980.369991
1706.672996,5625.565159,-4293.194464,-78141.740796
1706.675490,3108.864956,-444.123565,-77222.426198
1706.677983,1628.453072,-1036.288319,-79061.055394
1706.680477,1036.288319,4293.194464,-77835.302597
1706.682971,-1924.535449,-1628.453072,-82431.875585
1706.685464,1036.288319,2812.782580,-77835.302597
1706.687958,1036.288319,-3256.906145,-79980.369991
1706.690452,2516.700203,-2220.617826,-76456.330700
1706.692945,4293.194464,444.123565,-78141.740796
1706.695439,2812.782580,-2368.659014,-79214.274493
1706.697932,5033.400406,-6661.853478,-79980.369991
1706.700426,1924.535449,1776.494261,-79367.493593
1706.702920,2516.700203,3701.029710,-79673.931792
1706.705413,-740.205942,1776.494261,-79214.274493
1706.707907,888.247130,-3701.029710,-77682.083497
1706.710401,3849.070898,-1628.453072,-76915.987999
1706.712894,296.082377,-6513.812290,-80440.027290
1706.715388,1036.288319,-3404.947333,-79214.274493
1706.717881,1036.288319,9918.759623,-79061.055394
1706.720375,888.247130,-6661.853478,-83197.971083
1706.722869,3552.988522,4441.235652,-74770.920605
1706.725362,-2516.700203,-3256.906145,-79214.274493
1706.727856,1924.535449,-4737.318029,-78141.740796
1706.730349,-5033.400406,13027.624579,-77528.864398
1706.732843,-6513.812290,-5329.482782,-84270.504780
1706.735366,-888.247130,19393.395680,-74770.920605
1706.737888,148.041188,-10510.924376,-85802.695776
1706.740411,4145.153275,-7698.141797,-80133.589091
1706.742934,-5033.400406,14359.995275,-72319.415011
1706.745457,-5033.400406,-740.205942,-82431.875585
1706.747979,-4293.194464,7550.100608,-76762.768900
1706.750502,-1924.535449,-1184.329507,-83351.190182
1706.753025,-2664.741391,5329.482782,-78907.836294
1706.755547,-444.123565,4441.235652,-79673.931792
1706.758070,-1332.370696,-1776.494261,-77375.645298
1706.760593,-5181.441594,13175.665768,-74004.825107
1706.763115,-1184.329507,-5181.441594,-81818.999186
1706.765638,1036.288319,444.123565,-80593.246390
1706.768161,-4589.276840,9918.759623,-77222.426198
1706.770683,-3108.864956,-2368.659014,-82738.313784
1706.773206,-592.164754,7105.977043,-73545.167808
1706.775729,-444.123565,296.082377,-76456.330700
1706.778251,-1332.370696,2368.659014,-77528.864398
1706.780774,0.000000,4589.276840,-79061.055394
1706.783297,-1776.494261,2664.741391,-81512.560987
1706.785819,-6365.771101,5625.565159,-79520.712692
1706.788342,-6809.894666,9770.718434,-78601.398095
1706.790865,-3701.029710,1628.453072,-78141.740796
1706.793388,1184.329507,3256.906145,-75996.673402
1706.795910,-1036.288319,2368.659014,-77835.302597
1706.798433,-5477.523971,1628.453072,-80286.808190
1706.800956,-1184.329507,8882.471304,-80593.246390
1706.803478,-5329.482782,4293.194464,-80440.027290
1706.806001,888.247130,-2516.700203,-78141.740796
1706.808524,-2960.823768,11843.295072,-75077.358804
1706.811046,-9918.759623,-7402.059420,-80746.465489
1706.813569,2516.700203,14656.077652,-74924.139704
1706.816092,-2516.700203,888.247130,-80593.246390
1706.818614,1332.370696,-1480.411884,-80440.027290
1706.821137,-1924.535449,13471.748144,-74004.825107
1706.823660,3404.947333,-10362.883188,-83964.066581
1706.826182,5921.647536,1036.288319,-75690.235202
1706.828705,-2368.659014,1332.370696,-79827.150892
1706.831228,-740.205942,-2812.782580,-78448.178995
1706.833751,740.205942,3552.988522,-76609.549800
1706.836290,3849.070898,-6661.853478,-84576.942979
1706.838830,4885.359217,2368.659014,-78448.178995
1706.841369,5625.565159,-4589.276840,-81359.341888
1706.843908,148.041188,888.247130,-75077.358804
1706.846448,1924.535449,4589.276840,-77375.645298
1706.848987,-444.123565,-5329.482782,-79827.150892
1706.851527,3849.070898,-1628.453072,-79980.369991
1706.854066,740.205942,4441.235652,-79520.712692
1706.856606,2368.659014,-4293.194464,-81818.999186
1706.859145,3108.864956,-444.123565,-77222.426198
1706.861685,296.082377,-1924.535449,-78141.740796
1706.864224,4293.194464,888.247130,-79367.493593
1706.866764,3108.864956,444.123565,-81052.903688
1706.869303,-2072.576638,-1628.453072,-81512.560987
1706.871843,-1036.288319,2072.576638,-78448.178995
1706.874382,740.205942,3256.906145,-76762.768900
1706.876922,-1924.535449,1628.453072,-77835.302597
1706.879461,9030.512492,-5329.482782,-80440.027290
1706.882001,2812.782580,-148.041188,-78448.178995
1706.884540,5625.565159,-2960.823768,-81818.999186
1706.887080,-1184.329507,1776.494261,-78294.959896
1706.889619,2960.823768,-3552.988522,-78601.398095
1706.892159,1776.494261,-740.205942,-77375.645298
1706.894698,4293.194464,592.164754,-80593.246390
1706.897238,-444.123565,-1628.453072,-79980.369991
1706.899777,-148.041188,-2664.741391,-79827.150892
1706.902317,4885.359217,2664.741391,-77528.864398
1706.904856,-2664.741391,-1924.535449,-79520.712692
1706.907395,4737.318029,-3701.029710,-79827.150892
1706.909935,-3256.906145,5773.606348,-79367.493593
1706.912474,1480.411884,-5773.606348,-81206.122788
1706.915014,2516.700203,10807.006753,-73085.510509
1706.917553,-2516.700203,-14063.912898,-83044.751983
1706.920093,-2368.659014,14508.036463,-74464.482406
1706.922632,-5477.523971,13471.748144,-81972.218286
1706.925172,-1924.535449,-9918.759623,-87488.105872
1706.927711,2368.659014,11251.130318,-75230.577904
1706.930251,-5921.647536,-1924.535449,-79367.493593
1706.932790,444.123565,3404.947333,-75077.358804
1706.935330,-3849.070898,10510.924376,-76915.987999
1706.937882,-3701.029710,-444.123565,-83810.847481
1706.940433,-3552.988522,7105.977043,-79061.055394
1706.942985,-1036.288319,-296.082377,-81052.903688
1706.945537,-1480.411884,6069.688724,-77528.864398
1706.948089,-3108.864956,888.247130,-78754.617194
1706.950640,-2960.823768,7698.141797,-75690.235202
1706.953192,1036.288319,8438.347739,-79673.931792
1706.955744,-3849.070898,-1480.411884,-84270.504780
1706.958296,-2368.659014,3997.112087,-78448.178995
1706.960848,-1628.453072,4441.235652,-80133.589091
1706.963399,-1628.453072,-592.164754,-77682.083497
1706.965951,740.205942,1924.535449,-74311.263306
1706.968503,-1184.329507,5033.400406,-78141.740796
1706.971055,-1480.411884,2220.617826,-80440.027290
1706.973606,-5033.400406,7254.018232,-81052.903688
1706.976158,-5773.606348,888.247130,-81206.122788
1706.978710,-3849.070898,4885.359217,-78448.178995
1706.981262,-2664.741391,11251.130318,-75537.016103
1706.983814,-3404.947333,-2664.741391,-78754.617194
1706.986365,-444.123565,740.205942,-77375.645298
1706.988917,-3256.906145,7105.977043,-80593.246390
1706.991469,1480.411884,7402.059420,-80746.465489
1706.994021,-5329.482782,5033.400406,-79673.931792
1706.996572,-3108.864956,1332.370696,-77682.083497
1706.999124,-3997.112087,6661.853478,-74464.482406
1707.001676,1776.494261,-5921.647536,-80593.246390
1707.004228,-2516.700203,10807.006753,-76456.330700
1707.006780,-3997.112087,6661.853478,-81972.218286
1707.009331,-1184.329507,-740.205942,-80899.684589
1707.011883,5033.400406,-2960.823768,-78141.740796
1707.014435,2220.617826,-9770.718434,-79061.055394
1707.016987,4737.318029,6661.853478,-75230.577904
1707.019539,1480.411884,1036.288319,-77988.521696
1707.022090,2812.782580,2072.576638,-78907.836294
1707.024642,-2664.741391,-1332.370696,-81206.122788
1707.027194,3552.988522,-7846.182985,-79367.493593
1707.029746,3701.029710,10362.883188,-74004.825107
1707.032297,-148.041188,-4145.153275,-81972.218286
1707.034849,3256.906145,-1628.453072,-76762.768900
1707.037401,1924.535449,4589.276840,-78754.617194
1707.039869,-3552.988522,-5625.565159,-82738.313784
1707.042336,3404.947333,1184.329507,-76456.330700
1707.044803,4145.153275,-4885.359217,-79214.274493
1707.047270,444.123565,4737.318029,-74004.825107
1707.049737,-296.082377,5181.441594,-78754.617194
1707.052203,592.164754,-7254.018232,-80440.027290
1707.054670,-148.041188,1480.411884,-79367.493593
1707.057137,888.247130,1184.329507,-79827.150892
1707.059604,1776.494261,-2368.659014,-78754.617194
1707.062071,-2516.700203,-4441.235652,-77528.864398
1707.064538,5329.482782,3849.070898,-75996.673402
1707.067004,7994.224174,-6069.688724,-81206.122788
1707.069471,6661.853478,-3256.906145,-80133.589091
1707.071938,-592.164754,4737.318029,-79980.369991
1707.074405,1628.453072,-5033.400406,-81512.560987
1707.076872,-888.247130,1184.329507,-75230.577904
1707.079338,5181.441594,-1184.329507,-74924.139704
1707.081805,2516.700203,-1332.370696,-78448.178995
1707.084272,6069.688724,2664.741391,-80593.246390
1707.086739,-3552.988522,-1924.535449,-83504.409282
1707.089206,4441.235652,-1332.370696,-79673.931792
1707.091672,-6661.853478,5921.647536,-76762.768900
1707.094139,1776.494261,-6809.894666,-79367.493593
1707.096606,1628.453072,7994.224174,-72932.291410
1707.099073,-1924.535449,-14359.995275,-85343.038477
1707.101540,-2960.823768,19541.436869,-74617.701505
1707.104007,-9622.677246,7402.059420,-83964.066581
1707.106473,1036.288319,-5033.400406,-80593.246390
1707.108940,592.164754,11695.253884,-71246.881314
1707.111407,-6069.688724,-3404.947333,-80133.589091
1707.113874,-592.164754,5773.606348,-73698.386908
1707.116341,-5477.523971,11251.130318,-77988.521696
1707.118807,-1036.288319,-1332.370696,-83810.847481
1707.121274,-1184.329507,8438.347739,-80286.808190
1707.123741,-1776.494261,740.205942,-82431.875585
1707.126208,-5181.441594,2960.823768,-74924.139704
1707.128675,0.000000,2664.741391,-75383.797003
1707.131141,-6365.771101,5033.400406,-75690.235202
1707.133608,-1924.535449,5033.400406,-81206.122788
1707.136075,-1924.535449,6069.688724,-81818.999186
1707.138574,-592.164754,1480.411884,-82278.656485
1707.141074,-3256.906145,5921.647536,-76609.549800
1707.143573,-1036.288319,1628.453072,-75230.577904
1707.146072,296.082377,-2516.700203,-76609.549800
1707.148572,1036.288319,7402.059420,-76915.987999
1707.151071,-4589.276840,3108.864956,-83044.751983
1707.153570,-4589.276840,8882.471304,-82125.437386
1707.156070,-7846.182985,6661.853478,-80593.246390
1707.158569,1924.535449,444.123565,-77835.302597
1707.161068,-1036.288319,3108.864956,-72779.072310
1707.163568,-592.164754,-1036.288319,-78907.836294
1707.166067,-4293.194464,9622.677246,-79367.493593
1707.168566,-3256.906145,2812.782580,-83657.628382
1707.171066,-4589.276840,10807.006753,-79520.712692
1707.173565,-888.247130,1036.288319,-79520.712692
1707.176064,4293.194464,2072.576638,-76762.768900
1707.178564,-1776.494261,-3701.029710,-76915.987999
1707.181063,1332.370696,5033.400406,-77682.083497
1707.183562,-7105.977043,9178.553681,-79367.493593
1707.186062,2368.659014,-2516.700203,-82431.875585
1707.188561,4885.359217,-2960.823768,-79061.055394
1707.191060,-148.041188,-3552.988522,-80133.589091
1707.193560,2516.700203,-1480.411884,-75996.673402
1707.196059,-740.205942,3701.029710,-74617.701505
1707.198558,3849.070898,-7105.977043,-81972.218286
1707.201058,-148.041188,6661.853478,-77375.645298
1707.203557,2664.741391,-6513.812290,-83964.066581
1707.206056,5329.482782,1036.288319,-76149.892501
1707.208556,2516.700203,148.041188,-79827.150892
1707.211055,1480.411884,-296.082377,-76762.768900
1707.213554,-148.041188,-3256.906145,-77988.521696
1707.216054,2812.782580,-3849.070898,-79520.712692
1707.218577,444.123565,1628.453072,-79061.055394
1707.221100,3404.947333,1332.370696,-78907.836294
1707.223624,-740.205942,-2368.659014,-78907.836294
1707.226147,4293.194464,2516.700203,-77988.521696
1707.228670,-592.164754,1332.370696,-78907.836294
1707.231193,444.123565,-3108.864956,-80593.246390
1707.233717,3552.988522,-740.205942,-79061.055394
1707.236240,-1036.288319,-4145.153275,-79980.369991
1707.238763,3701.029710,2960.823768,-77375.645298
1707.241287,3552.988522,1924.535449,-78294.959896
1707.243810,4441.235652,-1480.411884,-79673.931792
1707.246333,3404.947333,-8734.430116,-80899.684589
1707.248857,1332.370696,-148.041188,-78754.617194
1707.251380,3552.988522,888.247130,-79214.274493
1707.253903,2812.782580,740.205942,-77375.645298
1707.256427,-3552.988522,2368.659014,-76762.768900
1707.258950,5033.400406,-7402.059420,-78448.178995
1707.261473,592.164754,3108.864956,-79673.931792
1707.263997,3849.070898,-3404.947333,-83197.971083
1707.266520,1628.453072,7402.059420,-78754.617194
1707.269043,-5921.647536,-2664.741391,-79061.055394
1707.271567,5033.400406,-8142.265362,-76762.768900
1707.274090,-8290.306550,13027.624579,-75077.358804
1707.276613,-2664.741391,-5921.647536,-85189.819378
1707.279136,444.123565,23390.507767,-74617.701505
1707.281660,-4441.235652,-3256.906145,-86109.133975
1707.284183,2812.782580,-1924.535449,-77835.302597
1707.286706,-1480.411884,2664.741391,-74617.701505
1707.289230,-5329.482782,1628.453072,-78907.836294
1707.291753,-4885.359217,16284.530724,-76609.549800
1707.294276,-3849.070898,1332.370696,-85649.476676
1707.296800,-4737.318029,4441.235652,-78601.398095
1707.299323,-1184.329507,3701.029710,-78907.836294
1707.301846,-3701.029710,1924.535449,-76762.768900
1707.304370,-888.247130,592.164754,-75690.235202
1707.306893,-3849.070898,7105.977043,-77528.864398
1707.309416,-1332.370696,5181.441594,-81206.122788
1707.311940,-2664.741391,2960.823768,-82431.875585
1707.314463,-444.123565,2368.659014,-80440.027290
1707.316986,-1480.411884,888.247130,-77069.207099
1707.319452,-888.247130,888.247130,-74924.139704
1707.321917,-3701.029710,8882.471304,-75383.797003
1707.324383,-3997.112087,3552.988522,-82738.313784
1707.326849,-3256.906145,444.123565,-82431.875585
1707.329314,-3997.112087,8290.306550,-81512.560987
1707.331780,-7994.224174,8586.388927,-79214.274493
1707.334245,-3701.029710,4737.318029,-75383.797003
1707.336711,0.000000,-740.205942,-75690.235202
1707.339177,1776.494261,1332.370696,-77069.207099
1707.341642,-5921.647536,1480.411884,-82738.313784
1707.344108,1480.411884,4885.359217,-83504.409282
1707.346574,-9474.636058,17616.901420,-78601.398095
1707.349039,1184.329507,-7698.141797,-81052.903688
1707.351505,-3108.864956,888.247130,-71400.100414
1707.353970,-1776.494261,-3849.070898,-78448.178995
1707.356436,-148.041188,11991.336260,-76149.892501
1707.358902,3256.906145,-2812.782580,-84883.381178
1707.361367,6661.853478,-7254.018232,-82125.437386
1707.363833,296.082377,4145.153275,-78601.398095
1707.366298,-1332.370696,-3997.112087,-79367.493593
1707.368764,-592.164754,4145.153275,-73545.167808
1707.371230,-2072.576638,-5773.606348,-79061.055394
1707.373695,5329.482782,1332.370696,-79520.712692
1707.376161,592.164754,3404.947333,-79673.931792
1707.378626,5921.647536,-11695.253884,-83197.971083
1707.381092,2516.700203,7105.977043,-74311.263306
1707.383558,0.000000,-1332.370696,-81206.122788
1707.386023,1332.370696,-1332.370696,-76303.111601
1707.388489,3849.070898,-148.041188,-77988.521696
1707.390954,-2960.823768,-3701.029710,-79673.931792
1707.393420,4589.276840,-444.123565,-78141.740796
1707.395886,-740.205942,1924.535449,-79367.493593
1707.398351,1776.494261,592.164754,-79673.931792
1707.400817,1036.288319,3108.864956,-79673.931792
1707.403282,-1184.329507,3256.906145,-78294.959896
1707.405748,1628.453072,-7254.018232,-80133.589091
1707.408214,7254.018232,-4441.235652,-77528.864398
1707.410679,3849.070898,0.000000,-77069.207099
1707.413145,2368.659014,0.000000,-78754.617194
1707.415610,2368.659014,1480.411884,-79367.493593
1707.418110,7846.182985,-7105.977043,-82585.094684
1707.420609,3256.906145,444.123565,-79367.493593
1707.423109,-592.164754,-3701.029710,-78141.740796
1707.425608,5181.441594,1332.370696,-76762.768900
1707.428108,1036.288319,-2960.823768,-77988.521696
1707.430607,4145.153275,-2072.576638,-78907.836294
1707.433107,-5329.482782,2516.700203,-78754.617194
1707.435606,6957.935855,-592.164754,-83351.190182
1707.438106,148.041188,9622.677246,-77835.302597
1707.440605,3108.864956,-18949.272115,-82278.656485
1707.443105,-3108.864956,18505.148550,-68488.937521
1707.445604,-6217.729913,2960.823768,-81512.560987
1707.448104,-888.247130,-11843.295072,-86415.572174
1707.450603,2812.782580,11547.212695,-78141.740796
1707.453103,-4293.194464,-888.247130,-84117.285680
1707.455602,-4145.153275,5033.400406,-74770.920605
1707.458102,-1184.329507,4441.235652,-74924.139704
1707.460601,-5921.647536,3701.029710,-77682.083497
1707.463101,-888.247130,2516.700203,-80899.684589
1707.465600,-6217.729913,7994.224174,-79980.369991
1707.468100,-3552.988522,3256.906145,-80593.246390
1707.470599,-1332.370696,3701.029710,-76609.549800
1707.473099,-2072.576638,5921.647536,-76915.987999
1707.475598,-1924.535449,5181.441594,-77375.645298
1707.478098,-2960.823768,1184.329507,-81052.903688
1707.480597,-1184.329507,7994.224174,-79520.712692
1707.483097,-2220.617826,1036.288319,-81052.903688
1707.485596,148.041188,-2220.617826,-78448.178995
1707.488096,740.205942,3849.070898,-75843.454302
1707.490595,-4589.276840,7550.100608,-76915.987999
1707.493095,-6217.729913,6069.688724,-79520.712692
1707.495594,-1628.453072,2368.659014,-80593.246390
1707.498094,-3552.988522,2368.659014,-79520.712692
1707.500593,-2220.617826,3552.988522,-77528.864398
1707.503093,-4885.359217,7994.224174,-77222.426198
1707.505592,-1628.453072,-1036.288319,-78141.740796
1707.508092,-2664.741391,5921.647536,-78754.617194
1707.510591,2664.741391,-740.205942,-81512.560987
1707.513091,-3997.112087,13471.748144,-79827.150892
1707.515590,-1628.453072,-2664.741391,-83197.971083
1707.518116,-1184.329507,7402.059420,-74004.825107
1707.520641,-5625.565159,1924.535449,-76609.549800
1707.523167,-740.205942,148.041188,-76762.768900
1707.525693,9030.512492,-148.041188,-79061.055394
1707.528218,4441.235652,-6069.688724,-84117.285680
1707.530744,3108.864956,3404.947333,-78907.836294
1707.533270,-3701.029710,7254.018232,-75843.454302
1707.535795,1924.535449,-5181.441594,-79214.274493
1707.538321,888.247130,-2368.659014,-76149.892501
1707.540847,5033.400406,-6957.935855,-80593.246390
1707.543372,1924.535449,5773.606348,-77222.426198
1707.545898,4293.194464,-6365.771101,-83657.628382
1707.548423,-1184.329507,2220.617826,-76303.111601
1707.550949,3256.906145,-740.205942,-78754.617194
1707.553475,2072.576638,-3849.070898,-78294.959896
1707.556000,6661.853478,-3256.906145,-79673.931792
1707.558526,1776.494261,3108.864956,-77988.521696
1707.561052,-1628.453072,592.164754,-79367.493593
1707.563577,2516.700203,1776.494261,-77069.207099
1707.566103,2072.576638,444.123565,-80899.684589
1707.568629,-2664.741391,-296.082377,-81818.999186
1707.571154,3108.864956,-1776.494261,-79827.150892
1707.573680,1184.329507,-2812.782580,-79214.274493
1707.576205,7402.059420,-4737.318029,-77988.521696
1707.578731,3849.070898,-3849.070898,-76456.330700
1707.581257,4145.153275,-3404.947333,-78448.178995
1707.583782,3108.864956,-1628.453072,-79214.274493
1707.586308,3404.947333,148.041188,-81512.560987
1707.588834,-1628.453072,888.247130,-80286.808190
1707.591359,2812.782580,-5329.482782,-76915.987999
1707.593885,1184.329507,3404.947333,-73851.606007
1707.596411,592.164754,-7254.018232,-80593.246390
1707.598936,888.247130,7550.100608,-78141.740796
1707.601462,-1036.288319,-4441.235652,-84730.162079
1707.603988,7105.977043,-592.164754,-78448.178995
1707.606513,-2812.782580,17172.777854,-72625.853210
1707.609039,-8290.306550,-3404.947333,-80440.027290
1707.611564,-5773.606348,14952.160028,-71706.538613
1707.614090,-1332.370696,3552.988522,-82585.094684
1707.616616,740.205942,-6365.771101,-82738.313784
1707.619095,2516.700203,2960.823768,-75996.673402
1707.621575,-11695.253884,6809.894666,-79980.369991
1707.624054,-4145.153275,7994.224174,-77222.426198
1707.626534,-148.041188,10362.883188,-79214.274493
1707.629013,-2072.576638,-7994.224174,-81052.903688
1707.631493,-2072.576638,6661.853478,-75996.673402
1707.633972,-2516.700203,11843.295072,-74004.825107
1707.636452,-5329.482782,3108.864956,-81206.122788
1707.638931,-148.041188,2960.823768,-78754.617194
1707.641410,-6069.688724,6365.771101,-77682.083497
1707.643890,-148.041188,2960.823768,-82125.437386
1707.646369,-296.082377,1036.288319,-80133.589091
1707.648849,-592.164754,-1480.411884,-79214.274493
1707.651328,-1036.288319,6957.935855,-74311.263306
1707.653808,-8290.306550,3701.029710,-79061.055394
1707.656287,148.041188,2664.741391,-78294.959896
1707.658767,-4737.318029,8142.265362,-79827.150892
1707.661246,-4293.194464,5329.482782,-82431.875585
1707.663726,-4441.235652,4441.235652,-78907.836294
1707.666205,740.205942,5329.482782,-75996.673402
1707.668685,-6513.812290,-1332.370696,-78141.740796
1707.671164,148.041188,2960.823768,-76456.330700
1707.673644,-7402.059420,9770.718434,-79827.150892
1707.676123,1480.411884,2072.576638,-86415.572174
1707.678603,-2812.782580,4293.194464,-79520.712692
1707.681082,592.164754,2516.700203,-77375.645298
1707.683562,-7846.182985,6513.812290,-71400.100414
1707.686041,2072.576638,-12287.418637,-79980.369991
1707.688520,2072.576638,-2812.782580,-77835.302597
1707.691000,2812.782580,1036.288319,-83504.409282
1707.693479,888.247130,2516.700203,-81052.903688
1707.695959,-1184.329507,5329.482782,-77528.864398
1707.698438,7254.018232,-11547.212695,-78907.836294
1707.700918,1776.494261,3108.864956,-73851.606007
1707.703397,1776.494261,-2664.741391,-80133.589091
1707.705877,4589.276840,-1628.453072,-78294.959896
1707.708356,3849.070898,-1184.329507,-80746.465489
1707.710836,-1480.411884,-1332.370696,-82431.875585
1707.713315,592.164754,1480.411884,-77682.083497
1707.715795,5329.482782,-4885.359217,-80133.589091
1707.718305,5625.565159,-1628.453072,-76609.549800
1707.720816,-4589.276840,1924.535449,-77222.426198
1707.723327,1332.370696,-1924.535449,-79214.274493
1707.725837,3997.112087,740.205942,-78754.617194
1707.728348,1184.329507,-1480.411884,-82278.656485
1707.730858,-296.082377,5921.647536,-78448.178995
1707.733369,2664.741391,-4145.153275,-79214.274493
1707.735880,7254.018232,-6809.894666,-76915.987999
1707.738390,5329.482782,-3108.864956,-76149.892501
1707.740901,5181.441594,-1184.329507,-79214.274493
1707.743412,1480.411884,-148.041188,-81206.122788
1707.745922,1480.411884,1776.494261,-81818.999186
1707.748433,1776.494261,-1924.535449,-80746.465489
1707.750943,2516.700203,-8438.347739,-77682.083497
1707.753454,5329.482782,4293.194464,-74617.701505
1707.755965,1776.494261,-3552.988522,-78907.836294
1707.758475,-148.041188,6957.935855,-78141.740796
1707.760986,-148.041188,-3701.029710,-81512.560987
1707.763497,3552.988522,-12583.501014,-82278.656485
1707.766007,-2368.659014,16876.695478,-75383.797003
1707.768518,-9030.512492,-2664.741391,-82738.313784
1707.771028,-3997.112087,16136.489536,-71400.100414
1707.773539,-3997.112087,2368.659014,-81359.341888
1707.776050,4737.318029,-8142.265362,-81512.560987
1707.778560,-296.082377,10658.965565,-74617.701505
1707.781071,-6513.812290,4885.359217,-83044.751983
1707.783582,-2072.576638,10510.924376,-77375.645298
1707.786092,-2812.782580,1332.370696,-80286.808190
1707.788603,-5773.606348,-2664.741391,-79520.712692
1707.791113,-740.205942,5921.647536,-76149.892501
1707.793624,-2516.700203,5625.565159,-77835.302597
1707.796135,-2368.659014,5181.441594,-78754.617194
1707.798645,1332.370696,3849.070898,-80286.808190
1707.801156,148.041188,3849.070898,-79214.274493
1707.803667,888.247130,3552.988522,-81665.780087
1707.806177,-3108.864956,-3552.988522,-81052.903688
1707.808688,-2368.659014,2368.659014,-75843.454302
1707.811198,-4737.318029,7105.977043,-76762.768900
1707.813709,-5033.400406,6217.729913,-77835.302597
1707.816220,-5625.565159,5181.441594,-80746.465489
1707.818755,-2072.576638,4737.318029,-80286.808190
1707.821289,-4441.235652,5033.400406,-82125.437386
1707.823824,2516.700203,2516.700203,-78907.836294
1707.826359,-8142.265362,4293.194464,-76149.892501
1707.828894,-444.123565,6957.935855,-77222.426198
1707.831429,-7105.977043,3701.029710,-77222.426198
1707.833964,1776.494261,4293.194464,-81818.999186
1707.836499,-4145.153275,7402.059420,-79827.150892
1707.839034,1036.288319,-4441.235652,-82431.875585
1707.841569,-1628.453072,10955.047942,-71553.319513
1707.844104,2960.823768,-4441.235652,-77988.521696
1707.846639,4145.153275,-6365.771101,-77375.645298
1707.849174,1480.411884,1628.453072,-80593.246390
1707.851708,1480.411884,2516.700203,-81052.903688
1707.854243,-148.041188,3997.112087,-78601.398095
1707.856778,1332.370696,-7105.977043,-79520.712692
1707.859313,4145.153275,-2516.700203,-75077.358804
1707.861848,2960.823768,-3849.070898,-78601.398095
1707.864383,5329.482782,5181.441594,-77222.426198
1707.866918,1480.411884,2072.576638,-80440.027290
1707.869453,-888.247130,-3849.070898,-82125.437386
1707.871988,2812.782580,2960.823768,-78141.740796
1707.874523,2220.617826,-5181.441594,-80286.808190
1707.877058,3997.112087,-2516.700203,-77682.083497
1707.879593,1480.411884,-740.205942,-77835.302597
1707.882127,1332.370696,3997.112087,-78601.398095
1707.884662,1480.411884,-296.082377,-79980.369991
1707.887197,1480.411884,592.164754,-80286.808190
1707.889732,1184.329507,-888.247130,-79980.369991
1707.892267,1332.370696,-3108.864956,-78907.836294
1707.894802,5477.523971,-2220.617826,-76915.987999
1707.897337,4589.276840,-2664.741391,-77222.426198
1707.899872,2220.617826,-6217.729913,-79367.493593
1707.902407,3404.947333,6661.853478,-78141.740796
1707.904942,-1924.535449,-740.205942,-83810.847481
1707.907477,3108.864956,-6809.894666,-78754.617194
1707.910011,3701.029710,2220.617826,-74924.139704
1707.912546,4145.153275,-7698.141797,-78754.617194
1707.915081,-444.123565,10214.842000,-75230.577904
1707.917616,592.164754,-3849.070898,-82891.532884
1707.920170,3997.112087,-4589.276840,-81665.780087
1707.922724,-6661.853478,6513.812290,-79061.055394
1707.925277,-4441.235652,-148.041188,-77988.521696
1707.927831,-4145.153275,20429.683999,-72472.634111
1707.930385,-1776.494261,-5921.647536,-84270.504780
1707.932938,-148.041188,1628.453072,-76915.987999
1707.935492,-444.123565,740.205942,-78601.398095
1707.938046,-5773.606348,3849.070898,-80286.808190
1707.940600,-888.247130,17172.777854,-76303.111601
1707.943153,-9030.512492,592.164754,-83044.751983
1707.945707,148.041188,-8142.265362,-81206.122788
1707.948261,-1332.370696,11103.089130,-74004.825107
1707.950814,-3997.112087,0.000000,-79827.150892
1707.953368,-1924.535449,6957.935855,-77222.426198
1707.955922,1184.329507,4885.359217,-80593.246390
1707.958475,-1628.453072,4145.153275,-80746.465489
1707.961029,0.000000,1184.329507,-80440.027290
1707.963583,-888.247130,5329.482782,-78141.740796
1707.966137,-740.205942,-592.164754,-79367.493593
1707.968690,-3552.988522,2368.659014,-76456.330700
1707.971244,-6513.812290,8290.306550,-77988.521696
1707.973798,-9326.594869,11843.295072,-78601.398095
1707.976351,-2368.659014,2072.576638,-82278.656485
1707.978905,-1184.329507,5181.441594,-77988.521696
1707.981459,-5329.482782,-444.123565,-79061.055394
1707.984012,-2368.659014,10807.006753,-76303.111601
1707.986566,-1628.453072,1776.494261,-77988.521696
1707.989120,-2812.782580,9474.636058,-77528.864398
1707.991674,-1924.535449,-3552.988522,-83351.190182
1707.994227,3404.947333,-2664.741391,-83351.190182
1707.996781,-6957.935855,10066.800811,-75843.454302
1707.999335,1628.453072,-148.041188,-79214.274493
1708.001888,3849.070898,1332.370696,-76609.549800
1708.004442,-1480.411884,-6661.853478,-81972.218286
1708.006996,2812.782580,148.041188,-77988.521696
1708.009549,-1036.288319,4589.276840,-78754.617194
1708.012103,4145.153275,-3701.029710,-81818.999186
1708.014657,1036.288319,740.205942,-76303.111601
1708.017211,2960.823768,-7402.059420,-79980.369991
1708.019764,3849.070898,1184.329507,-74924.139704
1708.022331,3849.070898,-5033.400406,-81512.560987
1708.024898,2960.823768,-148.041188,-79673.931792
1708.027465,444.123565,5625.565159,-78141.740796
1708.030031,1036.288319,-1480.411884,-81206.122788
1708.032598,296.082377,-2368.659014,-76303.111601
1708.035165,444.123565,-4441.235652,-78141.740796
1708.037732,0.000000,3108.864956,-76915.987999
1708.040298,0.000000,-444.123565,-81206.122788
1708.042865,3701.029710,3256.906145,-79520.712692
1708.045432,1924.535449,1036.288319,-80440.027290
1708.047999,6957.935855,-8438.347739,-79827.150892
1708.050565,5773.606348,-6365.771101,-76915.987999
1708.053132,3701.029710,888.247130,-77069.207099
1708.055699,1332.370696,1924.535449,-79980.369991
1708.058266,592.164754,1036.288319,-81052.903688
1708.060832,9178.553681,-3849.070898,-80746.465489
1708.063399,-1036.288319,-4441.235652,-79061.055394
1708.065966,5921.647536,-444.123565,-78141.740796
1708.068533,-5625.565159,2516.700203,-76609.549800
1708.071099,7105.977043,-1036.288319,-78907.836294
1708.073666,-1332.370696,1628.453072,-78141.740796
1708.076233,2368.659014,-10362.883188,-84576.942979
1708.078800,-4145.153275,23538.548956,-76762.768900
1708.081366,-7105.977043,9474.636058,-82891.532884
1708.083933,-3404.947333,-6957.935855,-77528.864398
1708.086500,444.123565,8438.347739,-72472.634111
1708.089067,148.041188,-4885.359217,-83044.751983
1708.091633,-296.082377,11251.130318,-77222.426198
1708.094200,-5625.565159,10510.924376,-81818.999186
1708.096767,-6661.853478,2664.741391,-79980.369991
1708.099334,2812.782580,2664.741391,-78294.959896
1708.101900,-5329.482782,-148.041188,-78754.617194
1708.104467,-2072.576638,2664.741391,-77375.645298
1708.107034,-1332.370696,11251.130318,-76303.111601
1708.109601,-1480.411884,5773.606348,-80899.684589
1708.112167,-1332.370696,3997.112087,-81818.999186
1708.114734,-148.041188,-888.247130,-80440.027290
1708.117301,1480.411884,2812.782580,-78294.959896
1708.119868,-2220.617826,2516.700203,-77682.083497
1708.122434,-6513.812290,2072.576638,-76915.987999
1708.125011,-4737.318029,7994.224174,-77222.426198
1708.127588,-3404.947333,5329.482782,-81359.341888
1708.130165,-2812.782580,6809.894666,-80899.684589
1708.132741,-3849.070898,9622.677246,-79673.931792
1708.135318,-4145.153275,-1480.411884,-79214.274493
1708.137895,-296.082377,7846.182985,-75383.797003
1708.140471,-8882.471304,6809.894666,-76915.987999
1708.143048,2664.741391,-1628.453072,-80593.246390
1708.145625,-3256.906145,7846.182985,-78141.740796
1708.148202,-3552.988522,4441.235652,-83657.628382
1708.150778,-5773.606348,7105.977043,-77069.207099
1708.153355,5625.565159,-2960.823768,-78754.617194
1708.155932,2664.741391,-3701.029710,-75843.454302
1708.158508,5773.606348,-13915.871710,-81818.999186
1708.161085,3997.112087,8734.430116,-78141.740796
1708.163662,-2072.576638,7254.018232,-79367.493593
1708.166239,3108.864956,-5033.400406,-82125.437386
1708.168815,148.041188,-148.041188,-76149.892501
1708.171392,7994.224174,-9474.636058,-80133.589091
1708.173969,888.247130,3552.988522,-74770.920605
1708.176546,3997.112087,-4145.153275,-80593.246390
1708.179122,2220.617826,1628.453072,-77375.645298
1708.181699,1924.535449,-3849.070898,-81818.999186
1708.184276,2516.700203,-1036.288319,-80286.808190
1708.186852,3552.988522,1184.329507,-75843.454302
1708.189429,1480.411884,1036.288319,-78754.617194
1708.192006,1036.288319,-3256.906145,-79980.369991
1708.194583,-2664.741391,-1184.329507,-78294.959896
1708.197159,5181.441594,3849.070898,-78754.617194
1708.199736,8142.265362,-6365.771101,-81818.999186
1708.202313,4145.153275,-3701.029710,-79827.150892
1708.204889,5921.647536,-1332.370696,-77988.521696
1708.207466,3997.112087,-1924.535449,-78141.740796
1708.210043,3108.864956,-4293.194464,-76762.768900
1708.212620,-3404.947333,4589.276840,-78141.740796
1708.215196,592.164754,-8142.265362,-81665.780087
1708.217773,3108.864956,1332.370696,-79214.274493
1708.220350,148.041188,2220.617826,-77835.302597
1708.222926,5625.565159,1036.288319,-77222.426198
1708.225503,-148.041188,-1776.494261,-77682.083497
1708.228033,444.123565,-7254.018232,-78754.617194
1708.230563,-8438.347739,12583.501014,-78754.617194
1708.233093,-8438.347739,1480.411884,-81359.341888
1708.235623,-2368.659014,14952.160028,-73391.948708
1708.238153,444.123565,-3701.029710,-82125.437386
1708.240682,-1184.329507,-740.205942,-81512.560987
1708.243212,-3997.112087,10362.883188,-74464.482406
1708.245742,-6217.729913,8882.471304,-81206.122788
1708.248272,-8438.347739,3256.906145,-78601.398095
1708.250802,-1480.411884,5329.482782,-79827.150892
1708.253332,-5921.647536,-2072.576638,-79520.712692
1708.255862,444.123565,8438.347739,-76762.768900
1708.258391,-3849.070898,4589.276840,-77835.302597
1708.260921,-1628.453072,4293.194464,-75843.454302
1708.263451,-3256.906145,888.247130,-79367.493593
1708.265981,-592.164754,3997.112087,-80593.246390
1708.268511,-148.041188,2960.823768,-79980.369991
1708.271041,-3108.864956,6513.812290,-77528.864398
1708.273571,-6957.935855,3849.070898,-77835.302597
1708.276100,-4885.359217,1184.329507,-77375.645298
1708.278630,-3256.906145,8882.471304,-77835.302597
1708.281160,-7698.141797,8438.347739,-80133.589091
1708.283690,888.247130,-296.082377,-81206.122788
1708.286220,-7402.059420,9178.553681,-76456.330700
1708.288750,-1332.370696,-1332.370696,-79827.150892
1708.291280,-4589.276840,12287.418637,-74311.263306
1708.293809,2368.659014,3404.947333,-81206.122788
1708.296339,-6809.894666,-592.164754,-80593.246390
1708.298869,-1776.494261,3552.988522,-78448.178995
1708.301399,-3701.029710,10510.924376,-75537.016103
1708.303929,3997.112087,-9178.553681,-80133.589091
1708.306459,6217.729913,-2812.782580,-77069.207099
1708.308989,740.205942,888.247130,-80440.027290
1708.311519,2220.617826,-888.247130,-79520.712692
1708.314048,-3552.988522,3108.864956,-77682.083497
1708.316578,5477.523971,-7698.141797,-80593.246390
1708.319108,1924.535449,-4441.235652,-77682.083497
1708.321638,2220.617826,888.247130,-75996.673402
1708.324168,2368.659014,3552.988522,-78907.836294
1708.326698,4441.235652,-4885.359217,-81052.903688
1708.329245,4145.153275,-296.082377,-78754.617194
1708.331792,2516.700203,-2960.823768,-80286.808190
1708.334339,4885.359217,-2072.576638,-78294.959896
1708.336887,2368.659014,1332.370696,-76762.768900
1708.339434,-1480.411884,1924.535449,-78141.740796
1708.341981,-1628.453072,-1036.288319,-80133.589091
1708.344528,2812.782580,1480.411884,-79980.369991
1708.347076,6661.853478,-2516.700203,-82125.437386
1708.349623,6661.853478,-5625.565159,-79061.055394
1708.352170,2664.741391,-6069.688724,-76762.768900
1708.354717,3997.112087,2368.659014,-76456.330700
1708.357265,1924.535449,-5773.606348,-79061.055394
1708.359812,4441.235652,3256.906145,-77528.864398
1708.362359,-1036.288319,-3108.864956,-82125.437386
1708.364906,5329.482782,2812.782580,-81206.122788
1708.367454,1480.411884,-5625.565159,-78448.178995
1708.370001,2960.823768,1332.370696,-74617.701505
1708.372548,-4441.235652,592.164754,-74464.482406
1708.375095,4885.359217,-9178.553681,-80593.246390
1708.377643,-6661.853478,16728.654289,-79980.369991
1708.380190,-6661.853478,148.041188,-85343.038477
1708.382737,-3997.112087,15544.324782,-72166.195912
1708.385284,0.000000,1776.494261,-79367.493593
1708.387831,-740.205942,-8438.347739,-79214.274493
1708.390379,-2368.659014,10510.924376,-73851.606007
1708.392926,-4737.318029,5921.647536,-82585.094684
1708.395473,-2220.617826,8142.265362,-79673.931792
1708.398020,-592.164754,4589.276840,-82431.875585
1708.400568,-4293.194464,-2072.576638,-78294.959896
1708.403115,-1036.288319,6661.853478,-76149.892501
1708.405662,-3552.988522,3849.070898,-76456.330700
1708.408209,-6217.729913,2960.823768,-76609.549800
1708.410771,296.082377,3108.864956,-79980.369991
1708.413333,-2072.576638,5773.606348,-82431.875585
1708.415894,888.247130,3256.906145,-80440.027290
1708.418456,-3404.947333,3552.988522,-77375.645298
1708.421017,-6513.812290,4441.235652,-76303.111601
1708.423579,-7105.977043,8142.265362,-75843.454302
1708.426140,-6069.688724,4293.194464,-80286.808190
1708.428702,2220.617826,1184.329507,-81052.903688
1708.431263,-3404.947333,7550.100608,-79367.493593
1708.433825,-9326.594869,9326.594869,-78754.617194
1708.436386,-4441.235652,4293.194464,-79520.712692
1708.438948,5477.523971,2368.659014,-75843.454302
1708.441509,-5181.441594,-1776.494261,-78448.178995
1708.444071,-740.205942,888.247130,-79367.493593
1708.446632,-7550.100608,14508.036463,-78294.959896
1708.449194,6957.935855,-8734.430116,-84576.942979
1708.451756,2812.782580,6661.853478,-74464.482406
1708.454317,2960.823768,-13915.871710,-83964.066581
1708.456879,3849.070898,-7105.977043,-77069.207099
1708.459440,-2072.576638,3849.070898,-77222.426198
1708.462002,4145.153275,-6069.688724,-82585.094684
1708.464563,0.000000,1332.370696,-77528.864398
1708.467125,6809.894666,-3108.864956,-80286.808190
1708.469686,740.205942,-148.041188,-76762.768900
1708.472248,4737.318029,-1628.453072,-80593.246390
1708.474809,740.205942,888.247130,-78907.836294
1708.477371,1776.494261,-4589.276840,-80440.027290
1708.479932,1776.494261,592.164754,-76762.768900
1708.482494,296.082377,2516.700203,-78448.178995
1708.485056,-444.123565,-1480.411884,-79827.150892
1708.487617,1628.453072,-296.082377,-77835.302597
1708.490179,3849.070898,1776.494261,-79061.055394
1708.492740,1924.535449,148.041188,-79673.931792
1708.495302,7105.977043,-5181.441594,-79827.150892
1708.497863,6217.729913,-7550.100608,-78601.398095
1708.500425,5477.523971,-5921.647536,-79214.274493
1708.502986,-2072.576638,2368.659014,-77988.521696
1708.505548,5181.441594,3552.988522,-79980.369991
1708.508109,444.123565,-2220.617826,-79827.150892
1708.510671,8882.471304,-17172.777854,-82125.437386
1708.513242,-2220.617826,3849.070898,-73238.729609
1708.515813,740.205942,3552.988522,-79214.274493
1708.518385,6069.688724,4441.235652,-77375.645298
1708.520956,-740.205942,-10362.883188,-83044.751983
1708.523527,-3997.112087,8290.306550,-78141.740796
1708.526099,-7550.100608,13323.706956,-80440.027290
1708.528670,-3997.112087,-2960.823768,-80899.684589
1708.531241,1480.411884,9178.553681,-73545.167808
1708.533812,-148.041188,-148.041188,-78601.398095
1708.536384,-4589.276840,2368.659014,-80899.684589
1708.538955,-3701.029710,9770.718434,-78907.836294
1708.541526,1628.453072,2960.823768,-85189.819378
1708.544098,-1332.370696,3108.864956,-79367.493593
1708.546669,-2812.782580,8734.430116,-76609.549800
1708.549240,-6809.894666,1776.494261,-75843.454302
1708.551811,-444.123565,2368.659014,-75077.358804
1708.554383,-1628.453072,6957.935855,-77988.521696
1708.556954,-1924.535449,-1036.288319,-82891.532884
1708.559525,2368.659014,7846.182985,-80440.027290
1708.562097,-4293.194464,8142.265362,-77375.645298
1708.564668,-7402.059420,5181.441594,-76303.111601
1708.567239,-5625.565159,3701.029710,-75077.358804
1708.569810,-3256.906145,5033.400406,-76609.549800
1708.572382,-2960.823768,6809.894666,-80286.808190
1708.574953,-5773.606348,7105.977043,-82431.875585
1708.577524,888.247130,-296.082377,-81206.122788
1708.580096,-10807.006753,5625.565159,-75537.016103
1708.582667,-888.247130,8142.265362,-76762.768900
1708.585238,-2368.659014,3256.906145,-77222.426198
1708.587810,2960.823768,1480.411884,-80286.808190
1708.590381,-7402.059420,7846.182985,-78448.178995
1708.592952,7994.224174,-4737.318029,-81665.780087
1708.595523,2960.823768,1628.453072,-77375.645298
1708.598095,2220.617826,-10066.800811,-84270.504780
1708.600666,4145.153275,5625.565159,-73545.167808
1708.603237,-2072.576638,-2220.617826,-79214.274493
1708.605809,4737.318029,-2368.659014,-77988.521696
1708.608380,3701.029710,-1776.494261,-79061.055394
1708.610951,4441.235652,-1036.288319,-81052.903688
1708.613522,2812.782580,3552.988522,-76762.768900
1708.616101,5033.400406,-1480.411884,-80133.589091
1708.618680,148.041188,-3849.070898,-78141.740796
1708.621259,2220.617826,-2812.782580,-78907.836294
1708.623838,4293.194464,5329.482782,-77375.645298
1708.626416,1628.453072,-888.247130,-80899.684589
1708.628995,-148.041188,-3849.070898,-79980.369991
1708.631574,296.082377,148.041188,-77069.207099
1708.634153,4293.194464,4737.318029,-78448.178995
1708.636731,5477.523971,-5329.482782,-79827.150892
1708.639310,5329.482782,-6217.729913,-79673.931792
1708.641889,7402.059420,148.041188,-76456.330700
1708.644468,1036.288319,-3701.029710,-80899.684589
1708.647047,3997.112087,4589.276840,-76762.768900
1708.649625,444.123565,-3108.864956,-78294.959896
1708.652204,6809.894666,-4589.276840,-79520.712692
1708.654783,1628.453072,-2664.741391,-78141.740796
1708.657362,148.041188,5329.482782,-78754.617194
1708.659941,-1184.329507,-3404.947333,-78141.740796
1708.662519,8438.347739,-1924.535449,-75383.797003
1708.665098,-2960.823768,7698.141797,-79673.931792
1708.667677,-7846.182985,-2812.782580,-82585.094684
1708.670256,-4737.318029,15544.324782,-74770.920605
1708.672834,-2516.700203,4737.318029,-80593.246390
1708.675413,148.041188,-5921.647536,-79827.150892
1708.677992,-1036.288319,7254.018232,-72932.291410
1708.680571,-6809.894666,3552.988522,-81512.560987
1708.683150,-5625.565159,10510.924376,-79214.274493
1708.685728,-296.082377,7994.224174,-83197.971083
1708.688307,-6217.729913,-592.164754,-79061.055394
1708.690886,-1924.535449,3997.112087,-76456.330700
1708.693465,-1776.494261,4441.235652,-75230.577904
1708.696043,-4589.276840,1480.411884,-78754.617194
1708.698622,-592.164754,1332.370696,-79980.369991
1708.701201,-1628.453072,12435.459826,-79673.931792
1708.703780,-1924.535449,1776.494261,-83657.628382
1708.706359,-4293.194464,1924.535449,-77222.426198
1708.708937,-5773.606348,7105.977043,-75383.797003
1708.711516,-9326.594869,5329.482782,-76762.768900
1708.714095,-2664.741391,2220.617826,-76762.768900
1708.716674,-3256.906145,7402.059420,-79367.493593
1708.719258,-1628.453072,3256.906145,-84576.942979
1708.721843,-8290.306550,10658.965565,-79214.274493
1708.724427,444.123565,3256.906145,-79214.274493
1708.727012,-5181.441594,2664.741391,-75230.577904
1708.729596,2812.782580,1480.411884,-77835.302597
1708.732181,-6069.688724,-888.247130,-77375.645298
1708.734765,5033.400406,2516.700203,-81052.903688
1708.737349,4589.276840,2812.782580,-81665.780087
1708.739934,3108.864956,-6809.894666,-82891.532884
1708.742518,3552.988522,6217.729913,-73698.386908
1708.745103,148.041188,-6217.729913,-78907.836294
1708.747687,6809.894666,-3256.906145,-77682.083497
1708.750272,2960.823768,444.123565,-78448.178995
1708.752856,3701.029710,-2368.659014,-82278.656485
1708.755441,2516.700203,4737.318029,-77375.645298
1708.758025,2072.576638,-1184.329507,-80133.589091
1708.760610,6217.729913,-6809.894666,-78448.178995
1708.763194,5181.441594,-3849.070898,-80286.808190
1708.765778,-2516.700203,888.247130,-78294.959896
1708.768363,0.000000,2960.823768,-77835.302597
1708.770947,-592.164754,-2664.741391,-79520.712692
1708.773532,1184.329507,-2812.782580,-79673.931792
1708.776116,6217.729913,592.164754,-79520.712692
1708.778701,7994.224174,-4885.359217,-79827.150892
1708.781285,10510.924376,-2368.659014,-79367.493593
1708.783870,592.164754,-3849.070898,-79061.055394
1708.786454,740.205942,-6217.729913,-79520.712692
1708.789039,6217.729913,3108.864956,-74924.139704
1708.791623,296.082377,-1332.370696,-80440.027290
1708.794208,6809.894666,-4441.235652,-80899.684589
1708.796792,-3849.070898,-2072.576638,-77988.521696
1708.799376,6957.935855,-2812.782580,-80133.589091
1708.801961,5477.523971,6957.935855,-74924.139704
1708.804545,-2960.823768,-10362.883188,-84423.723880
1708.807130,-3997.112087,16876.695478,-75537.016103
1708.809714,-5033.400406,7698.141797,-82585.094684
1708.812299,-5773.606348,-9030.512492,-79367.493593
1708.814883,1628.453072,14211.954086,-73851.606007
1708.817468,-1036.288319,1776.494261,-81818.999186
1708.820052,-1332.370696,4145.153275,-76762.768900
1708.822639,-6957.935855,10955.047942,-78294.959896
1708.825226,-7254.018232,2368.659014,-82585.094684
1708.827814,592.164754,-1184.329507,-79827.150892
1708.830401,1628.453072,0.000000,-77988.521696
1708.832988,-6513.812290,9622.677246,-73391.948708
1708.835575,-5625.565159,-592.164754,-80593.246390
1708.838162,2220.617826,3108.864956,-77069.207099
1708.840750,148.041188,10214.842000,-80286.808190
1708.843337,-5477.523971,296.082377,-84117.285680
1708.845924,-5477.523971,1480.411884,-77682.083497
1708.848511,-7698.141797,8734.430116,-76149.892501
1708.851098,-10066.800811,2960.823768,-78294.959896
1708.853686,-3701.029710,8882.471304,-75996.673402
1708.856273,-4441.235652,6069.688724,-79827.150892
1708.858860,-3256.906145,-3849.070898,-83657.628382
1708.861447,-3256.906145,9622.677246,-78141.740796
1708.864034,-2072.576638,2368.659014,-80746.465489
1708.866622,-7846.182985,5477.523971,-77835.302597
1708.869209,444.123565,1776.494261,-77069.207099
1708.871796,-2516.700203,4737.318029,-74924.139704
1708.874383,3404.947333,-2664.741391,-82738.313784
1708.876970,6217.729913,-2664.741391,-81665.780087
1708.879558,4293.194464,-3108.864956,-81512.560987
1708.882145,2516.700203,3849.070898,-75843.454302
1708.884732,-4293.194464,-1628.453072,-77988.521696
1708.887319,5329.482782,-6365.771101,-78754.617194
1708.889906,-1924.535449,-4589.276840,-79061.055394
1708.892493,7550.100608,2664.741391,-77988.521696
1708.895081,-1332.370696,4737.318029,-77528.864398
1708.897668,7105.977043,-8586.388927,-81052.903688
1708.900255,3701.029710,-3552.988522,-76456.330700
1708.902842,2516.700203,-2368.659014,-81512.560987
1708.905429,2960.823768,4885.359217,-78141.740796
1708.908017,2072.576638,888.247130,-78907.836294
1708.910604,-2072.576638,-1480.411884,-77988.521696
1708.913191,296.082377,-3849.070898,-78754.617194
1708.915778,9474.636058,-3108.864956,-78448.178995
1708.918365,7994.224174,-1628.453072,-80286.808190
1708.920953,7254.018232,-4145.153275,-80440.027290
1708.923540,444.123565,1332.370696,-78141.740796
1708.926129,6957.935855,-5329.482782,-80593.246390
1708.928719,2960.823768,-2072.576638,-75690.235202
1708.931308,4293.194464,1480.411884,-79061.055394
1708.933897,-444.123565,-3256.906145,-78754.617194
1708.936486,6365.771101,-1332.370696,-79520.712692
1708.939075,-2368.659014,5329.482782,-77069.207099
1708.941665,4293.194464,-14063.912898,-83044.751983
1708.944254,-3256.906145,21614.013506,-74464.482406
1708.946843,-6365.771101,-888.247130,-83504.409282
1708.949432,-6809.894666,9326.594869,-73238.729609
1708.952021,-1776.494261,3404.947333,-78601.398095
1708.954611,2516.700203,-5625.565159,-79214.274493
1708.957200,-2960.823768,13915.871710,-74924.139704
1708.959789,-5773.606348,3997.112087,-83197.971083
1708.962378,-2220.617826,5329.482782,-79520.712692
1708.964967,-444.123565,2664.741391,-77988.521696
1708.967557,148.041188,-4885.359217,-79980.369991
1708.970146,-1184.329507,9326.594869,-73391.948708
1708.972735,3108.864956,740.205942,-78907.836294
1708.975324,-4885.359217,3256.906145,-79061.055394
1708.977913,888.247130,3997.112087,-79214.274493
1708.980503,148.041188,9326.594869,-80593.246390
1708.983092,-1480.411884,444.123565,-82738.313784
1708.985681,-6365.771101,3256.906145,-77528.864398
1708.988270,-8142.265362,14508.036463,-74158.044206
1708.990859,-6217.729913,3256.906145,-78907.836294
1708.993449,-3701.029710,4441.235652,-78448.178995
1708.996038,444.123565,6661.853478,-79214.274493
1708.998627,-1924.535449,2812.782580,-84117.285680
1709.001216,296.082377,9770.718434,-78754.617194
1709.003805,-8142.265362,3701.029710,-78754.617194
1709.006395,-1036.288319,-1776.494261,-74004.825107
1709.008984,-3256.906145,14063.912898,-72932.291410
1709.011573,3404.947333,-10807.006753,-83351.190182
1709.014162,6513.812290,-740.205942,-79214.274493
1709.016751,740.205942,1184.329507,-84423.723880
1709.019341,0.000000,-5921.647536,-82278.656485
1709.021930,2072.576638,-1480.411884,-76303.111601
1709.024519,3404.947333,-7254.018232,-78448.178995
1709.027108,-1184.329507,-5033.400406,-77988.521696
1709.029699,5625.565159,3108.864956,-76609.549800
1709.032290,-740.205942,0.000000,-78754.617194
1709.034881,6217.729913,-888.247130,-79520.712692
1709.037472,3849.070898,-2664.741391,-79520.712692
1709.040063,2220.617826,-7402.059420,-81359.341888
1709.042654,2516.700203,4293.194464,-76456.330700
1709.045244,-1776.494261,6365.771101,-77528.864398
1709.047835,-1332.370696,-1628.453072,-75996.673402
1709.050426,5477.523971,-7846.182985,-81052.903688
1709.053017,5477.523971,-2072.576638,-77682.083497
1709.055608,7846.182985,2368.659014,-79827.150892
1709.058199,1184.329507,-4589.276840,-81972.218286
1709.060790,5181.441594,-4737.318029,-79061.055394
1709.063381,-592.164754,-1332.370696,-77375.645298
1709.065972,592.164754,1332.370696,-78448.178995
1709.068563,5329.482782,-8142.265362,-78294.959896
1709.071153,-444.123565,5033.400406,-77835.302597
1709.073744,-7550.100608,-592.164754,-79980.369991
1709.076335,6957.935855,-6809.894666,-80440.027290
1709.078926,148.041188,8586.388927,-77528.864398
1709.081517,-8290.306550,2664.741391,-82431.875585
1709.084108,-5033.400406,18505.148550,-73391.948708
1709.086699,-7105.977043,-3552.988522,-80440.027290
1709.089290,888.247130,-2664.741391,-76915.987999
1709.091881,0.000000,11547.212695,-75537.016103
1709.094471,-4737.318029,6217.729913,-83044.751983
1709.097062,-3108.864956,5773.606348,-79673.931792
1709.099653,-888.247130,4589.276840,-81206.122788
1709.102244,-296.082377,3849.070898,-77682.083497
1709.104835,-444.123565,-3552.988522,-78907.836294
1709.107426,-1776.494261,11991.336260,-73085.510509
1709.110017,-2072.576638,444.123565,-80133.589091
1709.112608,-740.205942,1776.494261,-80286.808190
1709.115199,3552.988522,8438.347739,-80286.808190
1709.117790,-3108.864956,3701.029710,-81972.218286
1709.120380,-6957.935855,7254.018232,-77988.521696
1709.122971,-6365.771101,6365.771101,-76609.549800
1709.125562,-5921.647536,2368.659014,-75843.454302
1709.128153,-6809.894666,9918.759623,-76303.111601
1709.130744,-148.041188,3108.864956,-80593.246390
1709.133335,-3701.029710,7846.182985,-80746.465489
1709.135925,-148.041188,2072.576638,-83197.971083
1709.138516,-7550.100608,5921.647536,-78141.740796
1709.141106,-2368.659014,-1480.411884,-76915.987999
1709.143697,-148.041188,10510.924376,-73851.606007
1709.146288,2516.700203,-6513.812290,-80899.684589
1709.148878,5921.647536,-6217.729913,-80440.027290
1709.151469,296.082377,3701.029710,-80899.684589
1709.154059,5033.400406,-2072.576638,-82738.313784
1709.156650,-2072.576638,-148.041188,-76915.987999
1709.159240,2664.741391,-5329.482782,-78754.617194
1709.161831,5625.565159,-7550.100608,-78141.740796
1709.164422,3404.947333,444.123565,-76762.768900
1709.167012,-1332.370696,3701.029710,-78141.740796
1709.169603,592.164754,592.164754,-79520.712692
1709.172193,7550.100608,-5773.606348,-80440.027290
1709.174784,148.041188,-5477.523971,-79520.712692
1709.177375,740.205942,592.164754,-80133.589091
1709.179965,-3108.864956,-148.041188,-77375.645298
1709.182556,3701.029710,-2516.700203,-77988.521696
1709.185146,1184.329507,-4737.318029,-79980.369991
1709.187737,8290.306550,-5181.441594,-78754.617194
1709.190327,7254.018232,-2960.823768,-78294.959896
1709.192918,1776.494261,444.123565,-81972.218286
1709.195509,3256.906145,-296.082377,-80899.684589
1709.198099,1480.411884,-5773.606348,-79827.150892
1709.200690,6217.729913,-1628.453072,-75537.016103
1709.203280,-2072.576638,592.164754,-77835.302597
1709.205871,5921.647536,-1924.535449,-80133.589091
1709.208462,-3404.947333,3404.947333,-78907.836294
1709.211052,2960.823768,-10066.800811,-83657.628382
1709.213643,-5181.441594,18653.189738,-75230.577904
1709.216233,-3404.947333,-296.082377,-84270.504780
1709.218824,-4885.359217,13471.748144,-73851.606007
1709.221415,-296.082377,1184.329507,-80133.589091
1709.224005,-3997.112087,-1628.453072,-75690.235202
1709.226596,-1628.453072,6513.812290,-76149.892501
1709.229186,-2368.659014,5773.606348,-81512.560987
1709.231777,444.123565,8290.306550,-82125.437386
1709.234367,-5033.400406,5329.482782,-80440.027290
1709.236958,-1628.453072,1332.370696,-79367.493593
1709.239548,1332.370696,4293.194464,-74464.482406
1709.242138,888.247130,-444.123565,-75077.358804
1709.244729,-592.164754,6365.771101,-75690.235202
1709.247319,-2072.576638,148.041188,-81665.780087
1709.249909,-1480.411884,15396.283594,-81206.122788
1709.252500,-6957.935855,12583.501014,-80593.246390
1709.255090,-6365.771101,-740.205942,-79673.931792
1709.257680,-6661.853478,1776.494261,-73545.167808
1709.260271,-4293.194464,8438.347739,-75537.016103
1709.262861,-2516.700203,1776.494261,-79673.931792
1709.265451,148.041188,13619.789333,-80593.246390
1709.268042,-2960.823768,3997.112087,-84883.381178
1709.270632,-3404.947333,-592.164754,-81206.122788
1709.273222,-1036.288319,5181.441594,-76149.892501
1709.275813,-6809.894666,10362.883188,-74617.701505
1709.278403,7402.059420,-11103.089130,-78141.740796
1709.280993,3256.906145,0.000000,-75077.358804
1709.283584,6957.935855,-7698.141797,-82585.094684
1709.286174,3256.906145,5773.606348,-78294.959896
1709.288764,148.041188,3849.070898,-80440.027290
1709.291355,5033.400406,-8142.265362,-81052.903688
1709.293945,2516.700203,-1776.494261,-77222.426198
1709.296535,1332.370696,-6513.812290,-74004.825107
1709.299126,2960.823768,2664.741391,-75077.358804
1709.301716,1776.494261,-592.164754,-80440.027290
1709.304306,2812.782580,-2516.700203,-83504.409282
1709.306897,296.082377,-1776.494261,-81359.341888
1709.309487,1036.288319,2812.782580,-81206.122788
1709.312077,592.164754,2516.700203,-76149.892501
1709.314668,1924.535449,-8586.388927,-76762.768900
1709.317258,4589.276840,-10510.924376,-78754.617194
1709.319848,7105.977043,3552.988522,-77375.645298
1709.322439,3701.029710,-2812.782580,-83197.971083
1709.325029,5625.565159,-3256.906145,-81359.341888
1709.327619,740.205942,-444.123565,-80133.589091
1709.330210,-296.082377,1332.370696,-78448.178995
1709.332800,4441.235652,-7105.977043,-77069.207099
1709.335390,2368.659014,-3849.070898,-74924.139704
1709.337981,1184.329507,-1480.411884,-76456.330700
1709.340571,2812.782580,4885.359217,-80440.027290
1709.343161,-7846.182985,4145.153275,-84576.942979
1709.345751,-3256.906145,5033.400406,-81818.999186
1709.348341,-3404.947333,21021.848753,-75230.577904
1709.350931,-148.041188,-13915.871710,-81206.122788
1709.353521,2072.576638,2960.823768,-70174.347617
1709.356111,-9178.553681,10807.006753,-76456.330700
1709.358701,-4293.194464,5181.441594,-83044.751983
1709.361291,-1184.329507,10362.883188,-79520.712692
1709.363881,1184.329507,1628.453072,-84883.381178
1709.366471,-6661.853478,5033.400406,-78754.617194
1709.369061,-1036.288319,148.041188,-76915.987999
1709.371651,-444.123565,10510.924376,-71400.100414
1709.374241,-2368.659014,-2368.659014,-80286.808190
1709.376831,-2516.700203,1332.370696,-79214.274493
1709.379421,444.123565,9918.759623,-81972.218286
1709.382012,-4737.318029,7402.059420,-84117.285680
1709.384602,-4589.276840,8734.430116,-79520.712692
1709.387192,-7994.224174,2664.741391,-77222.426198
1709.389782,-6809.894666,-1036.288319,-75690.235202
1709.392372,-1036.288319,7550.100608,-73238.729609
1709.394962,-4589.276840,8142.265362,-79061.055394
1709.397552,-6217.729913,3701.029710,-83964.066581
1709.400142,-3552.988522,8438.347739,-81818.999186
1709.402732,-1628.453072,888.247130,-79673.931792
1709.405322,-5181.441594,3552.988522,-75690.235202
1709.407912,6661.853478,-3404.947333,-76303.111601
1709.410502,7105.977043,-4293.194464,-76609.549800
1709.413092,3108.864956,-5181.441594,-81818.999186
1709.415682,-1776.494261,8586.388927,-78294.959896
1709.418272,3404.947333,-2812.782580,-82891.532884
1709.420862,5773.606348,-3404.947333,-81359.341888
1709.423452,4441.235652,-1924.535449,-76915.987999
1709.426042,1924.535449,-7254.018232,-76303.111601
1709.428633,2072.576638,6365.771101,-73391.948708
1709.431223,-1036.288319,444.123565,-80593.246390
1709.433813,6069.688724,-5181.441594,-81665.780087
1709.436403,1924.535449,296.082377,-80746.465489
1709.438993,-1628.453072,-3108.864956,-83504.409282
1709.441583,1480.411884,3849.070898,-75843.454302
1709.444171,3108.864956,0.000000,-75077.358804
1709.446760,5033.400406,-11695.253884,-78294.959896
1709.449348,9474.636058,-8142.265362,-79980.369991
1709.451937,4441.235652,-2072.576638,-79520.712692
1709.454525,3108.864956,9030.512492,-81359.341888
1709.457114,-1036.288319,-6957.935855,-82585.094684
1709.459702,8142.265362,-4293.194464,-77069.207099
1709.462291,3552.988522,-10362.883188,-77222.426198
1709.464879,1924.535449,4885.359217,-77069.207099
1709.467468,-1184.329507,1036.288319,-78294.959896
1709.470056,592.164754,-3256.906145,-78601.398095
1709.472645,-2960.823768,6809.894666,-79520.712692
1709.475233,-8290.306550,2812.782580,-82431.875585
1709.477822,-2072.576638,7550.100608,-77528.864398
1709.480410,1332.370696,2812.782580,-76915.987999
1709.482999,-4441.235652,-1776.494261,-79214.274493
1709.485587,-4885.359217,10955.047942,-72166.195912
1709.488176,-5477.523971,3849.070898,-81206.122788
1709.490764,-3701.029710,6513.812290,-80133.589091
1709.493353,-740.205942,9178.553681,-82431.875585
1709.495942,-2960.823768,148.041188,-81512.560987
1709.498530,-1480.411884,3552.988522,-75230.577904
1709.501119,-3997.112087,4885.359217,-74464.482406
1709.503707,-2072.576638,296.082377,-77222.426198
1709.506296,-148.041188,148.041188,-81052.903688
1709.508884,-4589.276840,12879.583391,-80593.246390
1709.511473,-6513.812290,7402.059420,-83044.751983
1709.514061,-4737.318029,4441.235652,-77528.864398
1709.516650,-3404.947333,1924.535449,-76762.768900
1709.519238,-4885.359217,5773.606348,-74617.701505
1709.521827,-4589.276840,7550.100608,-77835.302597
1709.524415,-4589.276840,9030.512492,-80440.027290
1709.527004,-1480.411884,3108.864956,-82125.437386
1709.529592,-740.205942,3849.070898,-80133.589091
1709.532181,-7550.100608,1628.453072,-77988.521696
1709.534769,2960.823768,3997.112087,-76303.111601
1709.537358,5477.523971,-6365.771101,-78294.959896
1709.539946,-296.082377,-13767.830521,-79061.055394
1709.542535,1924.535449,13027.624579,-73085.510509
1709.545123,-2664.741391,1036.288319,-84117.285680
1709.547710,3849.070898,-1036.288319,-82431.875585
1709.550298,6069.688724,-6217.729913,-79980.369991
1709.552885,5033.400406,-9918.759623,-78601.398095
1709.555472,2072.576638,1184.329507,-72932.291410
1709.558059,-1776.494261,2664.741391,-77069.207099
1709.560646,1332.370696,-1184.329507,-80440.027290
1709.563233,7105.977043,-5625.565159,-84270.504780
1709.565821,1776.494261,-444.123565,-80899.684589
1709.568408,-2072.576638,4145.153275,-77528.864398
1709.570995,1924.535449,2072.576638,-75996.673402
1709.573582,5329.482782,-9326.594869,-77222.426198
1709.576169,6069.688724,-9326.594869,-79367.493593
1709.578757,4589.276840,2516.700203,-79827.150892
1709.581344,2812.782580,-148.041188,-82585.094684
1709.583931,3108.864956,-5329.482782,-80746.465489
1709.586518,5625.565159,-2072.576638,-76303.111601
1709.589105,2664.741391,-8882.471304,-78448.178995
1709.591692,3108.864956,2516.700203,-77069.207099
1709.594280,740.205942,-3552.988522,-78907.836294
1709.596867,5329.482782,-592.164754,-77835.302597
1709.599454,-3849.070898,3552.988522,-81052.903688
1709.602041,-8734.430116,7846.182985,-80746.465489
1709.604628,-5181.441594,16728.654289,-78294.959896
1709.607215,-2368.659014,-8586.388927,-81359.341888
1709.609803,-2664.741391,-1776.494261,-76609.549800
1709.612390,-4293.194464,11991.336260,-73085.510509
1709.614977,-7994.224174,4293.194464,-81359.341888
1709.617564,-2812.782580,8142.265362,-79980.369991
1709.620151,-3701.029710,7105.977043,-82585.094684
1709.622739,-2072.576638,1332.370696,-81052.903688
1709.625326,1628.453072,5329.482782,-75383.797003
1709.627913,-3108.864956,6513.812290,-74617.701505
1709.630500,-2516.700203,-3552.988522,-77682.083497
1709.633086,-296.082377,6957.935855,-78294.959896
1709.635673,-3997.112087,6365.771101,-82278.656485
1709.638260,-4293.194464,6809.894666,-82891.532884
1709.640847,-5477.523971,5625.565159,-78141.740796
1709.643433,-5625.565159,3849.070898,-76915.987999
1709.646020,-6069.688724,4737.318029,-74617.701505
1709.648607,-2072.576638,9770.718434,-77069.207099
1709.651194,740.205942,-592.164754,-80746.465489
1709.653781,-1776.494261,4589.276840,-79673.931792
1709.656367,-4441.235652,10066.800811,-81665.780087
1709.658954,-7550.100608,5181.441594,-81206.122788
1709.661541,5329.482782,-444.123565,-76762.768900
1709.664128,4145.153275,-3849.070898,-76303.111601
1709.666714,2516.700203,-8586.388927,-79520.712692
1709.669301,1480.411884,3108.864956,-76456.330700
1709.671888,-296.082377,4293.194464,-82125.437386
1709.674475,5181.441594,-6365.771101,-84730.162079
1709.677062,6069.688724,-3701.029710,-79061.055394
1709.679648,5773.606348,-4441.235652,-76915.987999
1709.682235,1628.453072,-3552.988522,-75077.358804
1709.684822,2960.823768,-1036.288319,-76915.987999
1709.687409,-2368.659014,1480.411884,-81512.560987
1709.689995,2368.659014,-4589.276840,-83504.409282
1709.692582,4737.318029,1480.411884,-80593.246390
1709.695169,-888.247130,6957.935855,-76303.111601
1709.697756,6513.812290,-8290.306550,-78141.740796
1709.700342,7698.141797,-10362.883188,-76149.892501
1709.702929,6957.935855,-4441.235652,-78448.178995
1709.705516,1480.411884,888.247130,-81512.560987
1709.708103,3849.070898,-1184.329507,-80286.808190
1709.710690,5773.606348,-296.082377,-80286.808190
1709.713276,3701.029710,-8734.430116,-79827.150892
1709.715863,-1036.288319,1184.329507,-75077.358804
1709.718450,2516.700203,-3256.906145,-76762.768900
1709.721037,6365.771101,592.164754,-78754.617194
1709.723623,-8882.471304,4145.153275,-80133.589091
1709.726210,-6217.729913,5033.400406,-81359.341888
1709.728797,-9474.636058,15100.201217,-78907.836294
1709.731384,1480.411884,-2960.823768,-83044.751983
1709.733968,-148.041188,2368.659014,-73851.606007
1709.736553,-1184.329507,4589.276840,-74158.044206
1709.739138,-8586.388927,4145.153275,-76303.111601
1709.741723,-5921.647536,18801.230927,-78601.398095
1709.744308,-3108.864956,2220.617826,-87181.667672
1709.746893,-740.205942,-740.205942,-80133.589091
1709.749477,-3108.864956,5625.565159,-73698.386908
1709.752062,-1480.411884,9474.636058,-72166.195912
1709.754647,-1036.288319,-3849.070898,-78907.836294
1709.757232,1332.370696,4589.276840,-77528.864398
1709.759817,-7698.141797,9030.512492,-83044.751983
1709.762401,-3849.070898,3404.947333,-82891.532884
1709.764986,-4145.153275,6957.935855,-78448.178995
1709.767571,-5773.606348,8882.471304,-76915.987999
1709.770156,-7254.018232,1776.494261,-76303.111601
1709.772741,-3552.988522,5773.606348,-74770.920605
1709.775325,-2220.617826,5625.565159,-79520.712692
1709.777910,-6069.688724,3849.070898,-81359.341888
1709.780495,-2960.823768,7402.059420,-80899.684589
1709.783080,-4885.359217,8882.471304,-79520.712692
1709.785665,8142.265362,-12435.459826,-79673.931792
1709.788249,6069.688724,148.041188,-73238.729609
1709.790834,2516.700203,-9918.759623,-78907.836294
1709.793419,888.247130,5773.606348,-75537.016103
1709.796004,444.123565,5329.482782,-81972.218286
1709.798589,5181.441594,-5181.441594,-84117.285680
1709.801174,9474.636058,-1924.535449,-79367.493593
1709.803758,4737.318029,-4145.153275,-76762.768900
1709.806343,3108.864956,-4737.318029,-74158.044206
1709.808928,2072.576638,3256.906145,-74770.920605
1709.811513,4441.235652,-4589.276840,-83964.066581
1709.814098,592.164754,-888.247130,-81818.999186
1709.816682,888.247130,4441.235652,-81052.903688
1709.819267,1776.494261,2516.700203,-76149.892501
1709.821852,4441.235652,-9178.553681,-77528.864398
1709.824437,4441.235652,-7254.018232,-75230.577904
1709.827022,7994.224174,-3108.864956,-78141.740796
1709.829606,3404.947333,1924.535449,-81665.780087
1709.832191,1036.288319,-1628.453072,-82278.656485
1709.834776,6069.688724,-2368.659014,-80746.465489
1709.837359,2812.782580,-4145.153275,-77988.521696
1709.839943,4737.318029,-592.164754,-75537.016103
1709.842526,2960.823768,-2516.700203,-76609.549800
1709.845109,4441.235652,-11843.295072,-79673.931792
1709.847693,-6217.729913,15396.283594,-78294.959896
1709.850276,-11399.171507,7254.018232,-85036.600278
1709.852859,-3701.029710,15100.201217,-77988.521696
1709.855442,148.041188,-296.082377,-76149.892501
1709.858026,-4145.153275,-7402.059420,-77528.864398
1709.860609,-740.205942,7105.977043,-70787.224015
1709.863192,-10214.842000,10807.006753,-79520.712692
1709.865776,-4737.318029,3849.070898,-85036.600278
1709.868359,148.041188,12435.459826,-80593.246390
1709.870942,-5773.606348,-1036.288319,-83044.751983
1709.873526,-1480.411884,2368.659014,-74158.044206
1709.876109,-888.247130,4885.359217,-72166.195912
1709.878692,-592.164754,5033.400406,-76609.549800
1709.881276,-3108.864956,3256.906145,-83197.971083
1709.883859,-8142.265362,8438.347739,-83504.409282
1709.886442,-4145.153275,9326.594869,-80746.465489
1709.889026,-6513.812290,5477.523971,-79214.274493
1709.891609,-6217.729913,4145.153275,-74617.701505
1709.894192,-4589.276840,7846.182985,-74004.825107
1709.896775,-1776.494261,-740.205942,-79520.712692
1709.899359,1332.370696,3849.070898,-79980.369991
1709.901942,-1036.288319,9770.718434,-81665.780087
1709.904525,-12583.501014,8142.265362,-83197.971083
1709.907109,7402.059420,1776.494261,-78448.178995
1709.909692,9326.594869,-888.247130,-73391.948708
1709.912275,2072.576638,-11695.253884,-79827.150892
1709.914859,592.164754,592.164754,-74617.701505
1709.917442,1332.370696,10066.800811,-80440.027290
1709.920025,3997.112087,-8438.347739,-87794.544071
1709.922609,8290.306550,-2960.823768,-79827.150892
1709.925192,6365.771101,-1924.535449,-77988.521696
1709.927775,3404.947333,-5773.606348,-75537.016103
1709.930358,1776.494261,740.205942,-74464.482406
1709.932942,-148.041188,-1036.288319,-79673.931792
1709.935525,4589.276840,-148.041188,-83044.751983
1709.938108,2516.700203,2516.700203,-84576.942979
1709.940690,-1332.370696,-2960.823768,-79367.493593
1709.943270,1924.535449,-4441.235652,-75077.358804
1709.945851,7698.141797,-11547.212695,-74924.139704
1709.948432,7846.182985,148.041188,-75077.358804
1709.951012,4885.359217,740.205942,-82431.875585
1709.953593,3108.864956,-3552.988522,-84576.942979
1709.956174,2516.700203,-148.041188,-79827.150892
1709.958755,-3256.906145,-4293.194464,-78754.617194
1709.961335,5477.523971,-3849.070898,-75383.797003
1709.963916,3256.906145,-296.082377,-76609.549800
1709.966497,1924.535449,-10214.842000,-81359.341888
1709.969077,-6069.688724,20725.766376,-77528.864398
1709.971658,-10807.006753,5477.523971,-86415.572174
1709.974239,-3552.988522,9474.636058,-77835.302597
1709.976820,2812.782580,740.205942,-78294.959896
1709.979400,-2220.617826,-6365.771101,-75996.673402
1709.981981,-1924.535449,8142.265362,-71859.757712
1709.984562,-7254.018232,7994.224174,-79827.150892
1709.987142,-4885.359217,6069.688724,-83504.409282
1709.989723,-296.082377,9474.636058,-81052.903688
1709.992304,-3701.029710,2220.617826,-81818.999186
1709.994885,-2516.700203,148.041188,-74158.044206
1709.997465,-740.205942,6809.894666,-70940.443115
1710.000046,-3404.947333,-2516.700203,-78294.959896
1710.002627,-148.041188,3997.112087,-81665.780087
1710.005207,-7846.182985,16580.613101,-83504.409282
1710.007788,-6957.935855,4589.276840,-85496.257577
1710.010369,-3849.070898,11547.212695,-74617.701505
1710.012950,-3256.906145,4441.235652,-74617.701505
1710.015530,-3108.864956,-4145.153275,-76915.987999
1710.018111,2516.700203,7550.100608,-77222.426198
1710.020692,-6809.894666,10214.842000,-84117.285680
1710.023272,-3404.947333,444.123565,-84730.162079
1710.025853,-5625.565159,19245.354492,-75537.016103
1710.028434,1924.535449,-14211.954086,-81206.122788
1710.031015,8734.430116,-7402.059420,-70940.443115
1710.033595,6069.688724,740.205942,-76303.111601
1710.036176,-444.123565,-6661.853478,-78907.836294
1710.038757,-592.164754,8142.265362,-80133.589091
1710.041338,1776.494261,-3552.988522,-87794.544071
1710.043916,6069.688724,-9622.677246,-82585.094684
1710.046495,5921.647536,1036.288319,-72319.415011
1710.049074,1628.453072,-6069.688724,-74464.482406
1710.051653,1776.494261,-148.041188,-74311.263306
1710.054232,4145.153275,-1184.329507,-82278.656485
1710.056811,-1480.411884,-5773.606348,-86568.791274
1710.059390,3552.988522,8586.388927,-81206.122788
1710.061969,-444.123565,-2072.576638,-79827.150892
1710.064548,7254.018232,-6217.729913,-72166.195912
1710.067127,7550.100608,-7846.182985,-74464.482406
1710.069706,9622.677246,-6661.853478,-79214.274493
1710.072285,2960.823768,-592.164754,-84423.723880
1710.074864,-296.082377,6069.688724,-83197.971083
1710.077443,-1776.494261,-4885.359217,-81665.780087
1710.080022,6365.771101,1776.494261,-74158.044206
1710.082601,-296.082377,-6957.935855,-75077.358804
1710.085180,10362.883188,-9030.512492,-76762.768900
1710.087759,-7846.182985,10214.842000,-78294.959896
1710.090338,-9622.677246,5329.482782,-85189.819378
1710.092917,-6809.894666,23538.548956,-77835.302597
1710.095496,2812.782580,2664.741391,-80899.684589
1710.098075,-2960.823768,-12435.459826,-78601.398095
1710.100654,-148.041188,6365.771101,-69255.033019
1710.103233,-9178.553681,14804.118840,-76915.987999
1710.105812,-6365.771101,740.205942,-86415.572174
1710.108391,-592.164754,14656.077652,-80746.465489
1710.110970,-5329.482782,-3849.070898,-84883.381178
1710.113549,0.000000,3701.029710,-75383.797003
1710.116128,-2072.576638,2812.782580,-71859.757712
1710.118707,-3997.112087,3997.112087,-73851.606007
1710.121286,-3701.029710,6513.812290,-78601.398095
1710.123865,-2220.617826,6513.812290,-84883.381178
1710.126444,-6661.853478,7254.018232,-84117.285680
1710.129023,-8142.265362,6069.688724,-79980.369991
1710.131602,-6957.935855,11251.130318,-72319.415011
1710.134181,-2072.576638,-888.247130,-74311.263306
1710.136760,1184.329507,-2516.700203,-74311.263306
1710.139339,-2368.659014,13619.789333,-79214.274493
1710.141918,-7402.059420,2664.741391,-88713.858668
1710.144497,296.082377,13175.665768,-79827.150892
1710.147075,2516.700203,-5181.441594,-79673.931792
1710.149652,3849.070898,-18357.107362,-76456.330700
1710.152230,9030.512492,6513.812290,-67876.061123
1710.154808,-740.205942,-1924.535449,-79367.493593
1710.157385,444.123565,3849.070898,-83197.971083
1710.159963,2960.823768,2072.576638,-85496.257577
1710.162540,3997.112087,-8882.471304,-82278.656485
1710.165118,4589.276840,0.000000,-72319.415011
1710.167696,3849.070898,-5773.606348,-74464.482406
1710.170273,592.164754,-2664.741391,-74464.482406
1710.172851,296.082377,-3404.947333,-81818.999186
1710.175429,296.082377,5329.482782,-83351.190182
1710.178006,296.082377,444.123565,-82125.437386
1710.180584,5921.647536,-8142.265362,-78141.740796
1710.183161,5033.400406,-6365.771101,-72932.291410
1710.185739,7105.977043,-6661.853478,-76609.549800
1710.188317,1776.494261,-4441.235652,-77682.083497
1710.190894,4145.153275,-4293.194464,-83044.751983
1710.193472,3256.906145,-2516.700203,-82278.656485
1710.196050,-4885.359217,5477.523971,-79673.931792
1710.198627,5625.565159,-740.205942,-77528.864398
1710.201205,2960.823768,-148.041188,-73698.386908
1710.203783,1924.535449,-8586.388927,-80440.027290
1710.206360,-4589.276840,10807.006753,-77682.083497
1710.208938,-13767.830521,18653.189738,-82125.437386
1710.211515,-4589.276840,-2664.741391,-87028.448573
1710.214093,1184.329507,7402.059420,-74770.920605
1710.216671,-1628.453072,-2664.741391,-77222.426198
1710.219248,-3256.906145,0.000000,-72166.195912
1710.221826,-6069.688724,18357.107362,-76303.111601
1710.224404,-6069.688724,2516.700203,-87334.886772
1710.226981,592.164754,6217.729913,-82891.532884
1710.229559,148.041188,7846.182985,-78294.959896
1710.232137,-5181.441594,-1480.411884,-75077.358804
1710.234714,592.164754,2368.659014,-71859.757712
1710.237292,-3849.070898,7846.182985,-76303.111601
1710.239869,-6069.688724,6217.729913,-83504.409282
1710.242447,-9622.677246,12287.418637,-83351.190182
1710.245025,-2812.782580,6513.812290,-84117.285680
1710.247602,-4885.359217,2072.576638,-77222.426198
1710.250178,-3256.906145,7994.224174,-73238.729609
1710.252753,-2368.659014,1776.494261,-74770.920605
1710.255328,-3552.988522,3849.070898,-78907.836294
1710.257904,-6365.771101,6217.729913,-82585.094684
1710.260479,444.123565,7550.100608,-84270.504780
1710.263054,888.247130,-6217.729913,-79827.150892
1710.265630,10510.924376,-8586.388927,-75230.577904
1710.268205,7402.059420,-1332.370696,-71859.757712
1710.270780,-148.041188,-2220.617826,-76149.892501
1710.273356,1776.494261,2664.741391,-81052.903688
1710.275931,2072.576638,-740.205942,-86262.353075
1710.278506,3701.029710,-2220.617826,-84730.162079
1710.281082,1480.411884,1332.370696,-75843.454302
1710.283657,7846.182985,-6957.935855,-74464.482406
1710.286232,5033.400406,-3108.864956,-72472.634111
1710.288808,740.205942,-740.205942,-82431.875585
1710.291383,0.000000,3849.070898,-83351.190182
1710.293958,4589.276840,1776.494261,-84730.162079
1710.296534,148.041188,-6661.853478,-80746.465489
1710.299109,5625.565159,-5329.482782,-73391.948708
1710.301684,7402.059420,-8438.347739,-73391.948708
1710.304260,6661.853478,-11547.212695,-77682.083497
1710.306835,2664.741391,5033.400406,-80593.246390
1710.309410,740.205942,-1924.535449,-86875.229473
1710.311986,-740.205942,-2220.617826,-83504.409282
1710.314561,1332.370696,-1332.370696,-73391.948708
1710.317136,6365.771101,-3849.070898,-73698.386908
1710.319712,-4737.318029,-12287.418637,-77835.302597
1710.322287,-1924.535449,14508.036463,-76762.768900
1710.324862,-18505.148550,18653.189738,-83964.066581
1710.327438,-3552.988522,-2368.659014,-88100.982270
1710.330013,2072.576638,7994.224174,-76915.987999
1710.332588,-1924.535449,-5033.400406,-79520.712692
1710.335164,-888.247130,3701.029710,-69255.033019
1710.337739,-3552.988522,16580.613101,-73851.606007
1710.340314,-6365.771101,2960.823768,-86415.572174
1710.342890,-2220.617826,6809.894666,-83504.409282
1710.345465,-444.123565,6513.812290,-82431.875585
1710.348040,-444.123565,148.041188,-77835.302597
1710.350616,-2220.617826,-2516.700203,-74924.139704
1710.353189,-6069.688724,9770.718434,-71706.538613
1710.355763,-4145.153275,6809.894666,-79980.369991
1710.358337,-6809.894666,9178.553681,-82431.875585
1710.360911,-3404.947333,5773.606348,-85649.476676
1710.363484,-5477.523971,12287.418637,-75230.577904
1710.366058,-3108.864956,5033.400406,-76762.768900
1710.368632,296.082377,-296.082377,-72319.415011
1710.371205,-1480.411884,7105.977043,-75537.016103
1710.373779,-9178.553681,592.164754,-85189.819378
1710.376353,4145.153275,8586.388927,-82738.313784
1710.378926,2220.617826,1036.288319,-82278.656485
1710.381500,7994.224174,-18209.066173,-79214.274493
1710.384074,2220.617826,9622.677246,-65730.993728
1710.386647,148.041188,-9474.636058,-78601.398095
1710.389221,2516.700203,-592.164754,-78754.617194
1710.391795,6957.935855,148.041188,-83351.190182
1710.394368,2368.659014,-444.123565,-83044.751983
1710.396942,3404.947333,-148.041188,-76762.768900
1710.399516,4885.359217,-2072.576638,-73238.729609
1710.402089,4293.194464,-6069.688724,-74770.920605
1710.404663,3256.906145,-296.082377,-80899.684589
1710.407237,-296.082377,296.082377,-83810.847481
1710.409810,3552.988522,-296.082377,-81818.999186
1710.412384,2516.700203,-148.041188,-78907.836294
1710.414958,6217.729913,-12879.583391,-76762.768900
1710.417532,10658.965565,-7254.018232,-73545.167808
1710.420105,2220.617826,-148.041188,-78141.740796
1710.422679,8142.265362,-7105.977043,-84883.381178
1710.425253,-1184.329507,6957.935855,-80899.684589
1710.427826,1628.453072,-4885.359217,-82278.656485
1710.430400,-2072.576638,-2960.823768,-72932.291410
1710.432974,5033.400406,-4293.194464,-75690.235202
1710.435547,-5921.647536,7994.224174,-76915.987999
1710.438121,-3404.947333,3552.988522,-83197.971083
1710.440695,-5773.606348,17172.777854,-78754.617194
1710.443268,-444.123565,5921.647536,-81818.999186
1710.445842,-888.247130,-6217.729913,-77988.521696
1710.448416,-740.205942,6957.935855,-70021.128517
1710.450989,-9030.512492,7846.182985,-76915.987999
1710.453563,-3701.029710,2072.576638,-81512.560987
1710.456136,-2368.659014,9474.636058,-83044.751983
1710.458708,-5181.441594,-296.082377,-85802.695776
1710.461280,0.000000,5181.441594,-77682.083497
1710.463853,-444.123565,1036.288319,-73085.510509
1710.466425,-7402.059420,3701.029710,-73698.386908
1710.468998,-2812.782580,6217.729913,-76762.768900
1710.471570,-3404.947333,10807.006753,-82585.094684
1710.474142,-8438.347739,7846.182985,-84270.504780
1710.476715,-8438.347739,10214.842000,-79980.369991
1710.479287,-3108.864956,2812.782580,-75383.797003
1710.481860,0.000000,-2220.617826,-71093.662214
1710.484432,-1332.370696,9030.512492,-74617.701505
1710.487005,-5329.482782,592.164754,-83810.847481
1710.489577,-888.247130,18801.230927,-83657.628382
1710.492149,-888.247130,-10510.924376,-87028.448573
1710.494722,11103.089130,-6513.812290,-75537.016103
1710.497294,3108.864956,8142.265362,-64964.898230
1710.499867,592.164754,-8586.388927,-77682.083497
1710.502439,4589.276840,3256.906145,-78294.959896
1710.505012,3404.947333,-2516.700203,-89173.515967
1710.507584,-888.247130,-4293.194464,-84576.942979
1710.510156,3404.947333,5773.606348,-76303.111601
1710.512729,4885.359217,-5329.482782,-76303.111601
1710.515301,2368.659014,-12435.459826,-74770.920605
1710.517874,1480.411884,3404.947333,-78601.398095
1710.520446,-1332.370696,3404.947333,-84576.942979
1710.523019,6069.688724,-2072.576638,-84270.504780
1710.525591,6513.812290,-6513.812290,-78601.398095
1710.528163,9770.718434,-5921.647536,-73545.167808
1710.530736,4885.359217,-9178.553681,-75383.797003
1710.533308,4885.359217,-592.164754,-77528.864398
1710.535881,1036.288319,-4145.153275,-83810.847481
1710.538453,-296.082377,-888.247130,-83197.971083
1710.541025,-296.082377,1924.535449,-78601.398095
1710.543598,5625.565159,1332.370696,-76609.549800
1710.546170,-2664.741391,-10807.006753,-76762.768900
1710.548743,2368.659014,10658.965565,-73238.729609
1710.551315,-13767.830521,9622.677246,-79827.150892
1710.553888,-4441.235652,-6809.894666,-88867.077768
1710.556460,-2072.576638,8882.471304,-77528.864398
1710.559031,-4441.235652,6957.935855,-77988.521696
1710.561603,-3108.864956,-1776.494261,-72625.853210
1710.564174,-1776.494261,12139.377449,-72012.976812
1710.566746,-3997.112087,-1480.411884,-85496.257577
1710.569317,-1184.329507,9622.677246,-83044.751983
1710.571889,-2812.782580,5921.647536,-84730.162079
1710.574460,-4145.153275,1776.494261,-76149.892501
1710.577031,444.123565,-592.164754,-73698.386908
1710.579603,-3256.906145,6957.935855,-73391.948708
1710.582174,-6809.894666,3552.988522,-81818.999186
1710.584746,-5625.565159,17320.819043,-81972.218286
1710.587317,-7698.141797,6957.935855,-87028.448573
1710.589888,-2960.823768,2960.823768,-77682.083497
1710.592460,-2516.700203,3997.112087,-72166.195912
1710.595031,-5625.565159,-1776.494261,-73545.167808
1710.597603,-2664.741391,10658.965565,-75230.577904
1710.600174,-3701.029710,11991.336260,-84117.285680
1710.602746,5477.523971,-2072.576638,-85649.476676
1710.605317,9622.677246,-7550.100608,-78907.836294
1710.607888,3997.112087,-3552.988522,-73545.167808
1710.610460,2664.741391,148.041188,-71553.319513
1710.613031,2220.617826,3256.906145,-75843.454302
1710.615603,3849.070898,-7550.100608,-85343.038477
1710.618174,4145.153275,148.041188,-83504.409282
1710.620745,4145.153275,296.082377,-82278.656485
1710.623317,3552.988522,-592.164754,-76303.111601
1710.625888,-1480.411884,2960.823768,-72779.072310
1710.628460,2368.659014,-8586.388927,-77222.426198
1710.631031,4293.194464,2960.823768,-81512.560987
1710.633603,2812.782580,-2072.576638,-84730.162079
1710.636174,5477.523971,-2960.823768,-82431.875585
1710.638745,3701.029710,-3404.947333,-78141.740796
1710.641317,5033.400406,-6661.853478,-74004.825107
1710.643888,5329.482782,-2072.576638,-74311.263306
1710.646460,7402.059420,-9918.759623,-80746.465489
1710.649031,1036.288319,-1332.370696,-83044.751983
1710.651602,2220.617826,6217.729913,-83964.066581
1710.654174,-6217.729913,-2516.700203,-81206.122788
1710.656745,5181.441594,-11695.253884,-74158.044206
1710.659317,1036.288319,14952.160028,-69101.813920
1710.661886,-9474.636058,1776.494261,-81972.218286
1710.664456,-7254.018232,13471.748144,-81206.122788
1710.667025,-1036.288319,4441.235652,-86415.572174
1710.669595,-2368.659014,-5329.482782,-81665.780087
1710.672164,888.247130,7402.059420,-70940.443115
1710.674734,-7698.141797,5921.647536,-74464.482406
1710.677303,-3256.906145,1924.535449,-78294.959896
1710.679873,-2516.700203,8586.388927,-81206.122788
1710.682442,-3552.988522,4145.153275,-86722.010374
1710.685012,-3552.988522,2220.617826,-78907.836294
1710.687581,1924.535449,-1480.411884,-76149.892501
1710.690151,-5033.400406,7550.100608,-71400.100414
1710.692720,-10807.006753,8882.471304,-78754.617194
1710.695290,-6513.812290,11103.089130,-79827.150892
1710.697859,-3997.112087,4737.318029,-85802.695776
1710.700429,-6809.894666,2664.741391,-82278.656485
1710.702998,-4145.153275,13767.830521,-74464.482406
1710.705568,-6809.894666,592.164754,-76303.111601
1710.708137,-1184.329507,6217.729913,-71553.319513
1710.710707,-3108.864956,15544.324782,-77835.302597
1710.713276,4885.359217,-13323.706956,-87488.105872
1710.715846,9178.553681,-888.247130,-79214.274493
1710.718415,3701.029710,4737.318029,-78907.836294
1710.720985,-2220.617826,-4145.153275,-74464.482406
1710.723554,3404.947333,5329.482782,-71706.538613
1710.726124,2812.782580,-12287.418637,-83504.409282
1710.728693,9474.636058,-7698.141797,-82278.656485
1710.731263,2664.741391,7254.018232,-81052.903688
1710.733832,1036.288319,-3552.988522,-80746.465489
1710.736402,3256.906145,7550.100608,-71706.538613
1710.738971,2516.700203,-3108.864956,-77682.083497
1710.741541,888.247130,-5921.647536,-82585.094684
1710.744110,5033.400406,1924.535449,-79980.369991
1710.746680,5329.482782,-9918.759623,-84883.381178
1710.749249,5329.482782,-4441.235652,-77375.645298
1710.751819,3997.112087,-3108.864956,-74464.482406
1710.754388,7254.018232,-4293.194464,-74924.139704
1710.756958,5477.523971,-1036.288319,-79367.493593
1710.759527,-2220.617826,-2960.823768,-84270.504780
1710.762096,4441.235652,1924.535449,-81512.560987
1710.764665,5181.441594,4737.318029,-77069.207099
1710.767233,-2072.576638,-15692.365970,-77988.521696
1710.769801,-444.123565,16136.489536,-70327.566716
1710.772369,-13471.748144,14508.036463,-81052.903688
1710.774937,-3997.112087,-3849.070898,-86875.229473
1710.777505,2516.700203,8290.306550,-78907.836294
1710.780074,-5625.565159,-5329.482782,-82431.875585
1710.782642,-1776.494261,7105.977043,-71706.538613
1710.785210,-5773.606348,10362.883188,-73545.167808
1710.787778,-3701.029710,-4145.153275,-81665.780087
1710.790346,-3256.906145,7698.141797,-82125.437386
1710.792914,-3256.906145,5773.606348,-84576.942979
1710.795483,-1332.370696,3256.906145,-77988.521696
1710.798051,-1628.453072,1628.453072,-74924.139704
1710.800619,-6069.688724,3256.906145,-72625.853210
1710.803187,-8882.471304,11695.253884,-77375.645298
1710.805755,-9178.553681,8882.471304,-82125.437386
1710.808323,-6217.729913,1776.494261,-84730.162079
1710.810891,-4441.235652,11399.171507,-78754.617194
1710.813460,-8142.265362,8734.430116,-77835.302597
1710.816028,-740.205942,2516.700203,-75077.358804
1710.818596,-3552.988522,3997.112087,-75843.454302
1710.821164,5477.523971,444.123565,-81052.903688
1710.823732,2516.700203,-5477.523971,-84270.504780
1710.826300,6661.853478,-8882.471304,-83504.409282
1710.828869,3108.864956,11547.212695,-71246.881314
1710.831437,148.041188,1036.288319,-76915.987999
1710.834005,1332.370696,-5329.482782,-75843.454302
1710.836573,8142.265362,-4589.276840,-81818.999186
1710.839141,1480.411884,-8882.471304,-84423.723880
1710.841709,3701.029710,4737.318029,-77988.521696
1710.844277,1332.370696,3997.112087,-77528.864398
1710.846845,-296.082377,-5181.441594,-77375.645298
1710.849412,592.164754,-888.247130,-77528.864398
1710.851979,5625.565159,0.000000,-80286.808190
1710.854546,5477.523971,-7550.100608,-83044.751983
1710.857113,4589.276840,-1332.370696,-79367.493593
1710.859680,6069.688724,-6365.771101,-77222.426198
1710.862247,4441.235652,-2664.741391,-73851.606007
1710.864814,8142.265362,-5625.565159,-78294.959896
1710.867381,1184.329507,-296.082377,-81206.122788
1710.869948,6957.935855,-592.164754,-84270.504780
1710.872516,-6513.812290,-1480.411884,-81512.560987
1710.875083,4293.194464,-11991.336260,-76456.330700
1710.877650,-7105.977043,21465.972318,-67876.061123
1710.880217,-8734.430116,-6957.935855,-84423.723880
1710.882784,-2368.659014,18505.148550,-76915.987999
1710.885351,1924.535449,-1924.535449,-90092.830565
1710.887918,592.164754,-7402.059420,-80746.465489
1710.890485,-2664.741391,16876.695478,-70634.004916
1710.893052,-12879.583391,3849.070898,-77222.426198
1710.895619,-740.205942,4441.235652,-75690.235202
1710.898187,1036.288319,9030.512492,-79367.493593
1710.900754,-296.082377,2220.617826,-86722.010374
1710.903321,-2516.700203,1480.411884,-80286.808190
1710.905888,-592.164754,2516.700203,-75537.016103
1710.908455,-6513.812290,8438.347739,-72472.634111
1710.911022,-9770.718434,11547.212695,-76915.987999
1710.913589,-7550.100608,4885.359217,-80899.684589
1710.916156,-6217.729913,3701.029710,-82738.313784
1710.918723,-3404.947333,9030.512492,-81665.780087
1710.921290,-3701.029710,5625.565159,-76456.330700
1710.923858,-2812.782580,8734.430116,-75230.577904
1710.926425,-7105.977043,2664.741391,-76303.111601
1710.928992,5773.606348,5033.400406,-80440.027290
1710.931559,3701.029710,-9622.677246,-84117.285680
1710.934126,7105.977043,-16284.530724,-85189.819378
1710.936693,4737.318029,13619.789333,-70787.224015
1710.939260,-1332.370696,2960.823768,-77835.302597
1710.941827,3404.947333,-4441.235652,-77528.864398
1710.944394,6957.935855,-2368.659014,-80286.808190
1710.946961,2960.823768,-13471.748144,-85343.038477
1710.949493,3108.864956,10658.965565,-75230.577904
1710.952024,740.205942,3256.906145,-78907.836294
1710.954555,0.000000,-8438.347739,-78907.836294
1710.957086,1628.453072,296.082377,-77528.864398
1710.959617,2812.782580,3404.947333,-80440.027290
1710.962148,7105.977043,-9326.594869,-82585.094684
1710.964679,9622.677246,-3701.029710,-78754.617194
1710.967210,3404.947333,-4441.235652,-77988.521696
1710.969741,4145.153275,-5033.400406,-75996.673402
1710.972271,2516.700203,1924.535449,-76609.549800
1710.974802,444.123565,-6513.812290,-83810.847481
1710.977333,6069.688724,-3997.112087,-81206.122788
1710.979864,3256.906145,296.082377,-77988.521696
1710.982395,-6217.729913,-2812.782580,-78754.617194
1710.984926,-5773.606348,17468.860231,-72625.853210
1710.987457,-9178.553681,8142.265362,-79827.150892
1710.989988,-1776.494261,-6661.853478,-84423.723880
1710.992519,-2220.617826,7846.182985,-80899.684589
1710.995050,-2220.617826,-740.205942,-82585.094684
1710.997581,-1628.453072,8290.306550,-71706.538613
1711.000112,-7105.977043,10807.006753,-74311.263306
1711.002643,-3997.112087,-2368.659014,-81052.903688
1711.005174,-3404.947333,6513.812290,-80593.246390
1711.007705,296.082377,2664.741391,-83504.409282
1711.010236,-2812.782580,6069.688724,-77682.083497
1711.012767,-2072.576638,2220.617826,-76149.892501
1711.015298,-7254.018232,9178.553681,-72779.072310
1711.017829,-6217.729913,7402.059420,-79367.493593
1711.020360,-3849.070898,13027.624579,-80746.465489
1711.022891,-7698.141797,592.164754,-84730.162079
1711.025422,-2220.617826,7550.100608,-76609.549800
1711.027953,-8290.306550,3997.112087,-75537.016103
1711.030484,-3256.906145,7698.141797,-74617.701505
1711.033015,-1924.535449,12583.501014,-76456.330700
1711.035546,2812.782580,-9770.718434,-86722.010374
1711.038077,12287.418637,-6217.729913,-80746.465489
1711.040608,2664.741391,2812.782580,-77528.864398
1711.043139,-3108.864956,2812.782580,-76456.330700
1711.045669,2960.823768,7105.977043,-73851.606007
1711.048200,7550.100608,-14656.077652,-82585.094684
1711.050738,7550.100608,-7105.977043,-79827.150892
1711.053275,2072.576638,5625.565159,-79827.150892
1711.055813,3849.070898,-2812.782580,-81206.122788
1711.058350,-3256.906145,-888.247130,-76762.768900
1711.060887,-1776.494261,-4293.194464,-78601.398095
1711.063425,3256.906145,2220.617826,-77222.426198
1711.065962,7402.059420,3256.906145,-79367.493593
1711.068500,7254.018232,-9030.512492,-80746.465489
1711.071037,3552.988522,-9030.512492,-78601.398095
1711.073574,4737.318029,592.164754,-77375.645298
1711.076112,444.123565,-2960.823768,-79673.931792
1711.078649,4885.359217,-2960.823768,-77528.864398
1711.081186,5773.606348,-888.247130,-80746.465489
1711.083724,1184.329507,-3552.988522,-82431.875585
1711.086261,-2960.823768,-6365.771101,-79980.369991
1711.088799,-5477.523971,15988.448347,-74158.044206
1711.091336,-14656.077652,9178.553681,-79367.493593
1711.093873,-148.041188,3108.864956,-79061.055394
1711.096411,-296.082377,1776.494261,-81818.999186
1711.098948,-1924.535449,-5181.441594,-83044.751983
1711.101485,-6217.729913,13027.624579,-73391.948708
1711.104023,-7105.977043,6513.812290,-76149.892501
1711.106560,-6513.812290,2516.700203,-77222.426198
1711.109098,-2220.617826,2220.617826,-81818.999186
1711.111635,-296.082377,2072.576638,-83197.971083
1711.114172,1184.329507,2516.700203,-78294.959896
1711.116710,-2812.782580,7105.977043,-75537.016103
1711.119247,-10066.800811,7550.100608,-74924.139704
1711.121785,-3256.906145,5033.400406,-77222.426198
1711.124322,-6957.935855,11695.253884,-80133.589091
1711.126859,-6069.688724,-740.205942,-85036.600278
1711.129397,-592.164754,10214.842000,-78141.740796
1711.131934,-5921.647536,444.123565,-78141.740796
1711.134471,444.123565,11103.089130,-72166.195912
1711.137009,-9178.553681,16580.613101,-74464.482406
1711.139546,8734.430116,-18949.272115,-88254.201370
1711.142084,12879.583391,0.000000,-78601.398095
1711.144621,740.205942,-3997.112087,-83504.409282
1711.147158,-1628.453072,3256.906145,-73238.729609
1711.149696,4293.194464,9326.594869,-73851.606007
1711.152239,2812.782580,-13619.789333,-83351.190182
1711.154782,9326.594869,-2812.782580,-78601.398095
1711.157325,1184.329507,296.082377,-82431.875585
1711.159868,4737.318029,444.123565,-77988.521696
1711.162411,2368.659014,8882.471304,-74464.482406
1711.164954,1924.535449,-2220.617826,-79367.493593
1711.167497,444.123565,-3849.070898,-81052.903688
1711.170040,5181.441594,-2812.782580,-80133.589091
1711.172583,5921.647536,-1184.329507,-79367.493593
1711.175126,6513.812290,-10214.842000,-79214.274493
1711.177669,4441.235652,-740.205942,-74464.482406
1711.180212,5329.482782,1036.288319,-78448.178995
1711.182755,-592.164754,-888.247130,-82585.094684
1711.185298,9030.512492,-4145.153275,-83044.751983
1711.187841,-4441.235652,-5477.523971,-80133.589091
1711.190384,4441.235652,-14952.160028,-78601.398095
1711.192927,-4885.359217,27239.578666,-67722.842023
1711.195470,-15100.201217,7994.224174,-82738.313784
1711.198013,-2664.741391,0.000000,-82278.656485
1711.200556,1184.329507,3404.947333,-82738.313784
1711.203099,-592.164754,-8734.430116,-82891.532884
1711.205642,-2368.659014,8142.265362,-72472.634111
1711.208185,-10658.965565,12731.542202,-73698.386908
1711.210728,-5329.482782,2664.741391,-79980.369991
1711.213271,1628.453072,1924.535449,-81359.341888
1711.215814,-444.123565,1332.370696,-85343.038477
1711.218357,-2072.576638,444.123565,-79061.055394
1711.220900,-2812.782580,5033.400406,-74770.920605
1711.223443,-7402.059420,10658.965565,-74770.920605
1711.225986,-9030.512492,3404.947333,-79980.369991
1711.228529,-6957.935855,7402.059420,-80133.589091
1711.231072,-592.164754,5921.647536,-82891.532884
1711.233615,-1332.370696,3404.947333,-80593.246390
1711.236158,-7254.018232,12583.501014,-75537.016103
1711.238701,-8586.388927,5773.606348,-76456.330700
1711.241244,-592.164754,9918.759623,-75230.577904
1711.243787,6069.688724,-17024.736666,-84423.723880
1711.246330,6217.729913,-14359.995275,-80746.465489
1711.248873,2516.700203,18209.066173,-73391.948708
1711.251416,1036.288319,2516.700203,-81206.122788
1711.253963,3997.112087,1184.329507,-75077.358804
1711.256511,4145.153275,-7994.224174,-79827.150892
1711.259058,5477.523971,-15840.407159,-82431.875585
1711.261605,3552.988522,6957.935855,-75996.673402
1711.264152,-148.041188,4145.153275,-79827.150892
1711.266699,-1776.494261,2516.700203,-76609.549800
1711.269246,3256.906145,-592.164754,-79673.931792
1711.271793,4145.153275,1628.453072,-79061.055394
1711.274340,6661.853478,-10510.924376,-82431.875585
1711.276888,7550.100608,-4737.318029,-75537.016103
1711.279435,4293.194464,-1924.535449,-77375.645298
1711.281982,6957.935855,-2812.782580,-77222.426198
1711.284529,4293.194464,-5033.400406,-79980.369991
1711.287076,3701.029710,4885.359217,-82278.656485
1711.289623,-1036.288319,-6069.688724,-83504.409282
1711.292170,6661.853478,-4441.235652,-78294.959896
1711.294717,-6957.935855,16580.613101,-69408.252119
1711.297264,-8438.347739,592.164754,-78907.836294
1711.299812,-6365.771101,19837.519246,-74464.482406
1711.302359,-296.082377,-5625.565159,-90092.830565
1711.304906,-592.164754,-3701.029710,-83197.971083
1711.307453,-3849.070898,9326.594869,-75996.673402
1711.310000,-7698.141797,8142.265362,-73698.386908
1711.312547,-4589.276840,10510.924376,-73391.948708
1711.315094,-2960.823768,-3108.864956,-82278.656485
1711.317641,-2368.659014,-2072.576638,-81972.218286
1711.320189,2220.617826,2960.823768,-81972.218286
1711.322736,-2220.617826,13323.706956,-75690.235202
1711.325283,-6513.812290,6957.935855,-76303.111601
1711.327830,-9030.512492,7105.977043,-75690.235202
1711.330377,-9474.636058,6217.729913,-79214.274493
1711.332924,-5477.523971,2664.741391,-83351.190182
1711.335471,2072.576638,1036.288319,-80593.246390
1711.338018,-6957.935855,6069.688724,-76762.768900
1711.340566,-2664.741391,5329.482782,-76303.111601
1711.343113,-6217.729913,20873.807564,-74311.263306
1711.345660,9918.759623,-17024.736666,-85343.038477
1711.348207,12139.377449,-14211.954086,-79827.150892
1711.350754,4441.235652,14656.077652,-72166.195912
1711.353301,-2516.700203,5329.482782,-79061.055394
1711.355852,3701.029710,-592.164754,-77222.426198
1711.358403,6513.812290,-3552.988522,-80899.684589
1711.360954,4441.235652,-16136.489536,-83657.628382
1711.363505,2516.700203,6217.729913,-74464.482406
1711.366056,-1628.453072,2664.741391,-77528.864398
1711.368607,148.041188,2220.617826,-75537.016103
1711.371158,2664.741391,-888.247130,-78754.617194
1711.373709,1184.329507,-3552.988522,-81818.999186
1711.376259,12583.501014,-7402.059420,-81206.122788
1711.378810,5033.400406,-1924.535449,-77682.083497
1711.381361,296.082377,-5921.647536,-76456.330700
1711.383912,7105.977043,-1776.494261,-73698.386908
1711.386463,1924.535449,-1480.411884,-80899.684589
1711.389014,7846.182985,2368.659014,-82891.532884
1711.391565,-5181.441594,-4885.359217,-82891.532884
1711.394116,7698.141797,-9770.718434,-77528.864398
1711.396667,-13175.665768,17764.942608,-71400.100414
1711.399218,-8734.430116,-296.082377,-80899.684589
1711.401769,-5921.647536,24722.878463,-72319.415011
1711.404320,3552.988522,1628.453072,-85496.257577
1711.406870,-3404.947333,-7254.018232,-83044.751983
1711.409421,-1628.453072,10066.800811,-73545.167808
1711.411972,-7698.141797,11843.295072,-75537.016103
1711.414523,-6661.853478,7846.182985,-77682.083497
1711.417074,-1924.535449,-2072.576638,-81512.560987
1711.419625,0.000000,-1628.453072,-81052.903688
1711.422176,888.247130,3552.988522,-79980.369991
1711.424727,-5921.647536,3849.070898,-77988.521696
1711.427278,-9622.677246,11695.253884,-73391.948708
1711.429829,-7402.059420,10658.965565,-77988.521696
1711.432380,-3701.029710,2960.823768,-83810.847481
1711.434931,-1036.288319,2220.617826,-80286.808190
1711.437482,-1036.288319,6957.935855,-75690.235202
1711.440032,-5921.647536,9030.512492,-75843.454302
1711.442583,-7698.141797,11399.171507,-75690.235202
1711.445134,148.041188,3701.029710,-79827.150892
1711.447685,10214.842000,-19985.560434,-85036.600278
1711.450236,12287.418637,-9474.636058,-79980.369991
1711.452787,592.164754,5329.482782,-77222.426198
1711.455338,1036.288319,6069.688724,-76762.768900
1711.457858,5773.606348,1924.535449,-75690.235202
1711.460378,7402.059420,-9030.512492,-82738.313784
1711.462898,3552.988522,-13767.830521,-81359.341888
1711.465418,3997.112087,3404.947333,-77682.083497
1711.467938,592.164754,5329.482782,-78448.178995
1711.470458,-1184.329507,3108.864956,-76762.768900
1711.472978,2368.659014,0.000000,-78601.398095
1711.475498,5329.482782,-5329.482782,-81206.122788
1711.478018,10807.006753,-9474.636058,-80286.808190
1711.480538,8142.265362,-1332.370696,-77069.207099
1711.483058,5625.565159,1184.329507,-78754.617194
1711.485578,-740.205942,-3997.112087,-79367.493593
1711.488098,-148.041188,4885.359217,-79214.274493
1711.490618,5773.606348,-10362.883188,-82125.437386
1711.493138,8290.306550,-1480.411884,-78907.836294
1711.495658,-4145.153275,-6365.771101,-78448.178995
1711.498178,-8882.471304,23390.507767,-72319.415011
1711.500698,-14063.912898,14359.995275,-79827.150892
1711.503218,0.000000,-4737.318029,-83351.190182
1711.505738,1776.494261,296.082377,-80593.246390
1711.508258,-3849.070898,3997.112087,-78907.836294
1711.510778,-8142.265362,10658.965565,-75690.235202
1711.513298,-5181.441594,13915.871710,-72779.072310
1711.515818,-3849.070898,1776.494261,-80899.684589
1711.518338,444.123565,-888.247130,-82585.094684
1711.520858,1480.411884,-3849.070898,-84576.942979
1711.523378,-3552.988522,5625.565159,-76915.987999
1711.525898,-5033.400406,14508.036463,-74770.920605
1711.528418,-13027.624579,7846.182985,-75077.358804
1711.530938,-2664.741391,1184.329507,-81052.903688
1711.533458,-4145.153275,2960.823768,-82891.532884
1711.535978,4885.359217,4293.194464,-82431.875585
1711.538498,-8142.265362,6957.935855,-77988.521696
1711.541018,-7402.059420,10214.842000,-73698.386908
1711.543538,-5625.565159,11991.336260,-74004.825107
1711.546058,10807.006753,-20429.683999,-83657.628382
1711.548578,13767.830521,-6661.853478,-78907.836294
1711.551098,4293.194464,-6513.812290,-85189.819378
1711.553618,-2960.823768,12435.459826,-73698.386908
1711.556138,-1924.535449,9474.636058,-75843.454302
1711.558667,2220.617826,-11251.130318,-80593.246390
1711.561197,8586.388927,-14656.077652,-79214.274493
1711.563726,4441.235652,-3256.906145,-77988.521696
1711.566255,-1480.411884,7105.977043,-77222.426198
1711.568785,444.123565,7994.224174,-78294.959896
1711.571314,740.205942,740.205942,-80593.246390
1711.573844,3256.906145,-6365.771101,-82125.437386
1711.576373,7994.224174,-7402.059420,-79061.055394
1711.578903,9622.677246,-7994.224174,-77375.645298
1711.581432,4145.153275,-2812.782580,-76303.111601
1711.583962,3256.906145,5477.523971,-74924.139704
1711.586491,-1184.329507,2812.782580,-81206.122788
1711.589020,9326.594869,-10362.883188,-84117.285680
1711.591550,7254.018232,4441.235652,-79214.274493
1711.594079,-2220.617826,-15544.324782,-82125.437386
1711.596609,-7402.059420,22798.343014,-67876.061123
1711.599138,-15692.365970,12879.583391,-76762.768900
1711.601668,-1332.370696,1332.370696,-80899.684589
1711.604197,5477.523971,3552.988522,-83351.190182
1711.606727,-1628.453072,-8586.388927,-86875.229473
1711.609256,-3997.112087,12287.418637,-73698.386908
1711.611786,-11547.212695,15100.201217,-73391.948708
1711.614315,-2664.741391,592.164754,-79673.931792
1711.616844,148.041188,-1776.494261,-80746.465489
1711.619374,-148.041188,-4885.359217,-85189.819378
1711.621903,-3849.070898,6365.771101,-78448.178995
1711.624433,-5181.441594,15988.448347,-76915.987999
1711.626962,-12583.501014,11991.336260,-76609.549800
1711.629492,-5921.647536,0.000000,-79061.055394
1711.632021,-4737.318029,2072.576638,-80286.808190
1711.634551,1776.494261,1776.494261,-82431.875585
1711.637080,-7698.141797,5329.482782,-78754.617194
1711.639609,-10362.883188,11251.130318,-76149.892501
1711.642139,-5921.647536,13767.830521,-74924.139704
1711.644668,7698.141797,-18357.107362,-83197.971083
1711.647198,14211.954086,-10807.006753,-80286.808190
1711.649727,6217.729913,-5921.647536,-82125.437386
1711.652257,-3849.070898,5773.606348,-74464.482406
1711.654786,-1924.535449,13471.748144,-74004.825107
1711.657316,3256.906145,-8734.430116,-82738.313784
1711.659853,11843.295072,-11695.253884,-80133.589091
1711.662391,6365.771101,-2812.782580,-79214.274493
1711.664929,1776.494261,4737.318029,-78141.740796
1711.667467,-2072.576638,6217.729913,-76456.330700
1711.670005,2220.617826,2812.782580,-77682.083497
1711.672542,4145.153275,-8586.388927,-82125.437386
1711.675080,10807.006753,-10658.965565,-80746.465489
1711.677618,9918.759623,-4589.276840,-78754.617194
1711.680156,6957.935855,-2516.700203,-77069.207099
1711.682694,2664.741391,-740.205942,-75996.673402
1711.685231,-2368.659014,5773.606348,-77375.645298
1711.687769,4441.235652,-6957.935855,-84117.285680
1711.690307,7698.141797,-2812.782580,-81665.780087
1711.692845,-5921.647536,-2960.823768,-78754.617194
1711.695383,-8882.471304,19837.519246,-71400.100414
1711.697920,-15248.242405,18357.107362,-74924.139704
1711.700458,-2072.576638,-4145.153275,-84576.942979
1711.702996,3997.112087,-1924.535449,-81665.780087
1711.705534,740.205942,-3108.864956,-82738.313784
1711.708072,-8438.347739,13619.789333,-73391.948708
1711.710609,-6513.812290,13471.748144,-74004.825107
1711.713147,-1332.370696,2516.700203,-79980.369991
1711.715685,148.041188,-1184.329507,-81359.341888
1711.718223,-888.247130,-888.247130,-82125.437386
1711.720761,-6365.771101,9030.512492,-76915.987999
1711.723298,-7105.977043,13915.871710,-75077.358804
1711.725836,-9030.512492,10510.924376,-76149.892501
1711.728374,-7105.977043,888.247130,-81359.341888
1711.730912,-5181.441594,3701.029710,-81665.780087
1711.733450,1036.288319,-1924.535449,-83504.409282
1711.735987,-3552.988522,13471.748144,-74924.139704
1711.738525,-6069.688724,3701.029710,-76915.987999
1711.741063,-5181.441594,16580.613101,-72625.853210
1711.743601,9474.636058,-14508.036463,-84117.285680
1711.746139,11991.336260,-18209.066173,-84117.285680
1711.748676,2220.617826,10066.800811,-75383.797003
1711.751214,-740.205942,4145.153275,-78601.398095
1711.753752,1480.411884,3849.070898,-75230.577904
1711.756290,3701.029710,-7550.100608,-81512.560987
1711.758828,6069.688724,-15396.283594,-81052.903688
1711.761372,3256.906145,3256.906145,-76456.330700
1711.763915,-148.041188,9622.677246,-77069.207099
1711.766459,-592.164754,3404.947333,-78601.398095
1711.769003,3404.947333,-3404.947333,-81512.560987
1711.771547,7254.018232,-4589.276840,-79980.369991
1711.774091,10214.842000,-10955.047942,-79214.274493
1711.776635,4737.318029,-4145.153275,-75383.797003
1711.779179,4737.318029,4885.359217,-74004.825107
1711.781723,-2960.823768,5625.565159,-79061.055394
1711.784267,7550.100608,-3108.864956,-85036.600278
1711.786811,4293.194464,-6069.688724,-84270.504780
1711.789355,3701.029710,-21910.095883,-81512.560987
1711.791898,-8734.430116,28127.825796,-66803.527426
1711.794442,-17172.777854,7402.059420,-79061.055394
1711.796986,-7254.018232,18061.024985,-74004.825107
1711.799530,1776.494261,-296.082377,-86875.229473
1711.802074,1184.329507,-10658.965565,-87641.324971
1711.804618,-5033.400406,11695.253884,-72166.195912
1711.807162,-8586.388927,15692.365970,-73391.948708
1711.809706,-3256.906145,3849.070898,-78754.617194
1711.812250,-1036.288319,444.123565,-79827.150892
1711.814794,0.000000,-7550.100608,-84423.723880
1711.817338,-3997.112087,4589.276840,-78294.959896
1711.819882,-5477.523971,14656.077652,-75537.016103
1711.822425,-8882.471304,14952.160028,-74311.263306
1711.824969,-9178.553681,7550.100608,-79520.712692
1711.827513,-3701.029710,740.205942,-80899.684589
1711.830057,2220.617826,-444.123565,-82125.437386
1711.832601,-5477.523971,12731.542202,-76456.330700
1711.835145,-8586.388927,6217.729913,-76149.892501
1711.837689,-2072.576638,17764.942608,-72932.291410
1711.840233,5477.523971,-16284.530724,-84730.162079
1711.842777,13471.748144,-23094.425390,-81359.341888
1711.845321,14063.912898,3701.029710,-76762.768900
1711.847865,-2960.823768,1332.370696,-81206.122788
1711.850408,-888.247130,12435.459826,-73391.948708
1711.852952,3256.906145,-592.164754,-78141.740796
1711.855496,4737.318029,-19393.395680,-83810.847481
1711.858040,9326.594869,-2072.576638,-75077.358804
1711.860584,1036.288319,5477.523971,-76303.111601
1711.863134,592.164754,8734.430116,-77375.645298
1711.865683,2812.782580,1924.535449,-80746.465489
1711.868232,8438.347739,-6365.771101,-82278.656485
1711.870782,7994.224174,-19245.354492,-81818.999186
1711.873331,6513.812290,-7550.100608,-75230.577904
1711.875880,3701.029710,6957.935855,-74158.044206
1711.878430,-2368.659014,2368.659014,-79367.493593
1711.880979,11547.212695,-3404.947333,-83351.190182
1711.883529,2664.741391,-5033.400406,-83351.190182
1711.886078,7698.141797,-25907.207970,-84423.723880
1711.888627,-9770.718434,31828.855506,-66956.746525
1711.891177,-17024.736666,10807.006753,-79827.150892
1711.893726,-6661.853478,18653.189738,-73085.510509
1711.896276,2960.823768,-7994.224174,-86722.010374
1711.898825,3256.906145,-14211.954086,-83044.751983
1711.901374,-2220.617826,13471.748144,-75690.235202
1711.903924,-8290.306550,14211.954086,-78141.740796
1711.906473,-5181.441594,5033.400406,-78448.178995
1711.909022,592.164754,148.041188,-79827.150892
1711.911572,-1480.411884,-9326.594869,-83810.847481
1711.914121,-444.123565,2072.576638,-78448.178995
1711.916671,-5329.482782,14508.036463,-75843.454302
1711.919220,-10955.047942,18357.107362,-75077.358804
1711.921769,-10955.047942,7550.100608,-79980.369991
1711.924319,-444.123565,-3256.906145,-82585.094684
1711.926868,4589.276840,-2664.741391,-81972.218286
1711.929418,-5477.523971,12435.459826,-77682.083497
1711.931967,-11547.212695,14359.995275,-76456.330700
1711.934516,-1184.329507,6513.812290,-76303.111601
1711.937066,6217.729913,-20725.766376,-82738.313784
1711.939615,14063.912898,-19985.560434,-83351.190182
1711.942165,6217.729913,5033.400406,-77682.083497
1711.944714,1628.453072,9770.718434,-77988.521696
1711.947263,-1332.370696,7402.059420,-76609.549800
1711.949813,-1776.494261,-4293.194464,-79061.055394
1711.952362,8142.265362,-16432.571912,-80440.027290
1711.954911,10362.883188,-6069.688724,-77069.207099
1711.957461,148.041188,7254.018232,-77682.083497
1711.960010,-4441.235652,11251.130318,-78601.398095
1711.962560,2368.659014,-740.205942,-83657.628382
1711.965081,9474.636058,-5625.565159,-79214.274493
1711.967602,11991.336260,-17912.983796,-80440.027290
1711.970122,5033.400406,-10066.800811,-74004.825107
1711.972643,3701.029710,8290.306550,-73545.167808
1711.975164,-5329.482782,7846.182985,-79520.712692
1711.977685,9770.718434,-6217.729913,-83351.190182
1711.980205,4589.276840,-7402.059420,-83964.066581
1711.982726,5329.482782,-18357.107362,-84423.723880
1711.985247,-8586.388927,26647.413912,-68795.375720
1711.987767,-15988.448347,22798.343014,-75077.358804
1711.990288,-10214.842000,-1924.535449,-82125.437386
1711.992809,5181.441594,-4737.318029,-82585.094684
1711.995330,2812.782580,-9326.594869,-85189.819378
1711.997850,-3997.112087,12583.501014,-75843.454302
1712.000371,-8734.430116,21910.095883,-75537.016103
1712.002892,-7105.977043,4589.276840,-78754.617194
1712.005412,1628.453072,-3849.070898,-79673.931792
1712.007933,-2220.617826,-7698.141797,-82278.656485
1712.010454,-8142.265362,5329.482782,-77375.645298
1712.012975,-7254.018232,18653.189738,-75690.235202
1712.015495,-17172.777854,18505.148550,-75690.235202
1712.018016,-3701.029710,1332.370696,-81206.122788
1712.020537,2368.659014,-4441.235652,-81359.341888
1712.023057,-3108.864956,-2072.576638,-81665.780087
1712.025578,-3404.947333,18061.024985,-74924.139704
1712.028099,-13767.830521,18505.148550,-74004.825107
1712.030620,5477.523971,-6069.688724,-77528.864398
1712.033140,6809.894666,-15248.242405,-79520.712692
1712.035661,14359.995275,-20429.683999,-86568.791274
1712.038182,-740.205942,9178.553681,-78141.740796
1712.040702,-1036.288319,12879.583391,-77069.207099
1712.043223,-2516.700203,0.000000,-77835.302597
1712.045744,7254.018232,-11695.253884,-78601.398095
1712.048265,6809.894666,-14359.995275,-78601.398095
1712.050785,4589.276840,-888.247130,-76609.549800
1712.053306,-2368.659014,10807.006753,-77835.302597
1712.055827,148.041188,5625.565159,-81052.903688
1712.058347,4885.359217,-3256.906145,-82278.656485
1712.060868,9178.553681,-14359.995275,-81512.560987
1712.063389,8882.471304,-14656.077652,-76762.768900
1712.065920,4589.276840,2960.823768,-71706.538613
1712.068451,-7105.977043,10510.924376,-77069.207099
1712.070982,7105.977043,1628.453072,-81665.780087
1712.073513,6513.812290,-12435.459826,-85343.038477
1712.076044,6217.729913,-16432.571912,-84730.162079
1712.078574,-8882.471304,19393.395680,-74617.701505
1712.081105,-12583.501014,11399.171507,-74311.263306
1712.083636,-9622.677246,22058.137072,-67722.842023
1712.086167,-2072.576638,-4589.276840,-84117.285680
1712.088698,1776.494261,-10362.883188,-84730.162079
1712.091229,1184.329507,9326.594869,-78907.836294
1712.093760,-8438.347739,16580.613101,-76762.768900
1712.096291,-9622.677246,11103.089130,-75230.577904
1712.098822,0.000000,2220.617826,-78141.740796
1712.101353,-1480.411884,-11103.089130,-82738.313784
1712.103884,1036.288319,-2664.741391,-78907.836294
1712.106415,-9918.759623,18209.066173,-74617.701505
1712.108946,-11251.130318,13915.871710,-78141.740796
1712.111477,-8142.265362,6513.812290,-77528.864398
1712.114008,-2516.700203,6365.771101,-80746.465489
1712.116538,-6513.812290,-4145.153275,-81972.218286
1712.119069,2960.823768,9178.553681,-76609.549800
1712.121600,-15544.324782,21762.054695,-72472.634111
1712.124131,2664.741391,-5033.400406,-79214.274493
1712.126662,6957.935855,-8438.347739,-77528.864398
1712.129193,13915.871710,-26351.331535,-88713.858668
1712.131724,5773.606348,7550.100608,-75077.358804
1712.134255,1776.494261,14211.954086,-78448.178995
1712.136786,-148.041188,-444.123565,-78294.959896
1712.139317,2516.700203,-3256.906145,-77682.083497
1712.141848,2960.823768,-15692.365970,-78907.836294
1712.144379,6217.729913,-2516.700203,-77069.207099
1712.146918,296.082377,8290.306550,-77988.521696
1712.149457,-3404.947333,9770.718434,-78907.836294
1712.151996,7698.141797,-3108.864956,-82585.094684
1712.154535,9030.512492,-12139.377449,-80899.684589
1712.157074,11843.295072,-18949.272115,-79673.931792
1712.159614,2516.700203,148.041188,-72012.976812
1712.162153,-2368.659014,7254.018232,-75383.797003
1712.164692,2220.617826,10066.800811,-77988.521696
1712.167231,2072.576638,-11251.130318,-86415.572174
1712.169770,5181.441594,-24426.796086,-85802.695776
1712.172309,-6809.894666,24870.919651,-71553.319513
1712.174849,-21614.013506,25018.960840,-75230.577904
1712.177388,-6217.729913,1924.535449,-77069.207099
1712.179927,1776.494261,2072.576638,-78754.617194
1712.182466,2664.741391,-18357.107362,-89173.515967
1712.185005,-148.041188,12583.501014,-75843.454302
1712.187544,-9622.677246,21169.889941,-76915.987999
1712.190084,-10066.800811,6513.812290,-78141.740796
1712.192623,-740.205942,3108.864956,-75996.673402
1712.195162,1036.288319,-9178.553681,-82278.656485
1712.197701,-2812.782580,-444.123565,-79367.493593
1712.200240,-7698.141797,16580.613101,-76303.111601
1712.202779,-11103.089130,21465.972318,-77222.426198
1712.205318,-11103.089130,6217.729913,-80899.684589
1712.207858,2368.659014,-3701.029710,-80286.808190
1712.210397,-2664.741391,-5477.523971,-81359.341888
1712.212936,-444.123565,5477.523971,-78141.740796
1712.215475,-10807.006753,27979.784608,-70940.443115
1712.218014,1776.494261,-8586.388927,-81359.341888
1712.220553,9326.594869,-11103.089130,-76609.549800
1712.223093,12879.583391,-6809.894666,-80133.589091
1712.225632,888.247130,-1036.288319,-79673.931792
1712.228171,-1332.370696,12731.542202,-75843.454302
1712.230710,-1776.494261,1776.494261,-79520.712692
1712.233249,4589.276840,-12583.501014,-79980.369991
1712.235788,7105.977043,-10955.047942,-77222.426198
1712.238328,3552.988522,-2960.823768,-76303.111601
1712.240867,444.123565,10362.883188,-75690.235202
1712.243406,-296.082377,9770.718434,-80440.027290
1712.245945,3404.947333,-3849.070898,-83197.971083
1712.248491,11991.336260,-18209.066173,-81359.341888
1712.251037,10658.965565,-11547.212695,-76762.768900
1712.253583,2664.741391,-3404.947333,-73698.386908
1712.256129,-5033.400406,14656.077652,-73545.167808
1712.258675,740.205942,1036.288319,-82431.875585
1712.261221,9030.512492,-8290.306550,-84576.942979
1712.263767,2220.617826,-18209.066173,-84576.942979
1712.266312,-4737.318029,22206.178260,-72779.072310
1712.268858,-21762.054695,27683.702231,-74464.482406
1712.271404,-6365.771101,2368.659014,-79367.493593
1712.273950,1480.411884,-2960.823768,-77988.521696
1712.276496,592.164754,-6217.729913,-83810.847481
1712.279042,-1628.453072,8734.430116,-77835.302597
1712.281588,-8734.430116,23538.548956,-75383.797003
1712.284134,-6069.688724,5921.647536,-80440.027290
1712.286680,592.164754,-2812.782580,-80593.246390
1712.289226,-1184.329507,-11547.212695,-83351.190182
1712.291772,-5033.400406,1480.411884,-76915.987999
1712.294318,-8882.471304,17912.983796,-75383.797003
1712.296864,-14656.077652,16580.613101,-77069.207099
1712.299410,-5921.647536,11103.089130,-80593.246390
1712.301956,148.041188,-5181.441594,-82738.313784
1712.304501,2664.741391,-1184.329507,-80133.589091
1712.307047,-6661.853478,16580.613101,-75077.358804
1712.309593,-3701.029710,4885.359217,-77835.302597
1712.312139,4293.194464,-6957.935855,-76762.768900
1712.314685,8142.265362,-20873.807564,-81972.218286
1712.317231,6069.688724,-4441.235652,-77835.302597
1712.319777,5625.565159,9326.594869,-79980.369991
1712.322323,-2220.617826,7254.018232,-80440.027290
1712.324869,1184.329507,-2072.576638,-80286.808190
1712.327415,592.164754,-7254.018232,-76762.768900
1712.329961,2220.617826,-6217.729913,-75690.235202
1712.332507,888.247130,4589.276840,-75843.454302
1712.335053,-1628.453072,9622.677246,-78448.178995
1712.337599,3404.947333,740.205942,-83810.847481
1712.340144,10807.006753,-7105.977043,-83964.066581
1712.342690,10510.924376,-19837.519246,-82585.094684
1712.345236,7846.182985,-9030.512492,-73545.167808
1712.347782,-888.247130,1184.329507,-72472.634111
1712.350334,0.000000,14063.912898,-75077.358804
1712.352886,-1776.494261,-4293.194464,-85036.600278
1712.355438,6957.935855,-22354.219448,-90246.049664
1712.357990,148.041188,18801.230927,-75690.235202
1712.360542,-13915.871710,10955.047942,-79061.055394
1712.363094,-10807.006753,22502.260637,-69255.033019
1712.365646,-1480.411884,-2516.700203,-79520.712692
1712.368198,2960.823768,-13471.748144,-81359.341888
1712.370750,0.000000,6217.729913,-77988.521696
1712.373302,-3552.988522,9030.512492,-82125.437386
1712.375854,-5625.565159,19097.313304,-77988.521696
1712.378406,-3404.947333,1184.329507,-82585.094684
1712.380958,-3849.070898,-9326.594869,-81665.780087
1712.383510,-3256.906145,3701.029710,-75077.358804
1712.386062,-8438.347739,13619.789333,-75996.673402
1712.388614,-9326.594869,12287.418637,-77988.521696
1712.391166,-7254.018232,12139.377449,-80440.027290
1712.393718,-2960.823768,3404.947333,-83964.066581
1712.396270,1628.453072,-3997.112087,-82738.313784
1712.398822,-592.164754,2960.823768,-76456.330700
1712.401374,-6217.729913,15100.201217,-72932.291410
1712.403926,-3256.906145,-1036.288319,-76915.987999
1712.406477,10510.924376,-11399.171507,-80286.808190
1712.409029,8882.471304,-4737.318029,-81206.122788
1712.411581,5773.606348,1924.535449,-81206.122788
1712.414133,-2072.576638,8586.388927,-77988.521696
1712.416685,-444.123565,-1184.329507,-80746.465489
1712.419237,3404.947333,-6809.894666,-77375.645298
1712.421789,9622.677246,-11103.089130,-77528.864398
1712.424341,444.123565,2220.617826,-74311.263306
1712.426893,1332.370696,7105.977043,-77682.083497
1712.429445,4145.153275,3256.906145,-81818.999186
1712.431997,6365.771101,-5921.647536,-84423.723880
1712.434549,10955.047942,-16728.654289,-81359.341888
1712.437101,7105.977043,-4737.318029,-73851.606007
1712.439653,-740.205942,296.082377,-74617.701505
1712.442205,3997.112087,3108.864956,-74924.139704
1712.444757,2516.700203,2960.823768,-81818.999186
1712.447309,5477.523971,-21614.013506,-89479.954166
1712.449861,-6217.729913,18801.230927,-77835.302597
1712.452418,-11547.212695,6513.812290,-80286.808190
1712.454974,-6365.771101,21021.848753,-68335.718422
1712.457531,-2812.782580,2072.576638,-78448.178995
1712.460087,740.205942,-13619.789333,-83964.066581
1712.462644,592.164754,9326.594869,-78141.740796
1712.465201,-4885.359217,12287.418637,-82431.875585
1712.467757,-9030.512492,12435.459826,-79061.055394
1712.470314,-2516.700203,5181.441594,-77988.521696
1712.472871,-2220.617826,-9622.677246,-81818.999186
1712.475427,296.082377,2072.576638,-75077.358804
1712.477984,-9474.636058,13027.624579,-76456.330700
1712.480540,-11695.253884,10658.965565,-77682.083497
1712.483097,-3404.947333,13471.748144,-79367.493593
1712.485654,-5033.400406,5625.565159,-82585.094684
1712.488210,3701.029710,-2960.823768,-82738.313784
1712.490767,-3256.906145,8586.388927,-75230.577904
1712.493324,-3256.906145,11843.295072,-74464.482406
