#time,accel_x,accel_y,accel_z
1835.651557,-1184.329507,2812.782580,-78907.836294
1835.654130,888.247130,2812.782580,-77988.521696
1835.656703,888.247130,1480.411884,-78754.617194
1835.659277,1036.288319,-296.082377,-78754.617194
1835.661850,-296.082377,1332.370696,-78448.178995
1835.664424,-1776.494261,1628.453072,-78907.836294
1835.666997,-296.082377,2664.741391,-78754.617194
1835.669570,888.247130,1184.329507,-79673.931792
1835.672144,0.000000,2960.823768,-79061.055394
1835.674717,0.000000,592.164754,-79980.369991
1835.677290,1924.535449,3404.947333,-77375.645298
1835.679864,2812.782580,1036.288319,-78294.959896
1835.682437,1332.370696,4293.194464,-78448.178995
1835.685011,3701.029710,5921.647536,-79367.493593
1835.687584,4441.235652,888.247130,-79827.150892
1835.690157,2368.659014,7105.977043,-77375.645298
1835.692731,-1628.453072,7550.100608,-79214.274493
1835.695304,5773.606348,2960.823768,-78754.617194
1835.697877,5921.647536,6809.894666,-79061.055394
1835.700451,888.247130,2516.700203,-79520.712692
1835.703024,3997.112087,3256.906145,-77069.207099
1835.705598,-2516.700203,4737.318029,-77835.302597
1835.708171,-4441.235652,1628.453072,-79980.369991
1835.710744,-8734.430116,-10362.883188,-81359.341888
1835.713318,-2664.741391,-5773.606348,-76915.987999
1835.715891,-444.123565,10807.006753,-78294.959896
1835.718464,888.247130,-8586.388927,-81512.560987
1835.721038,-1924.535449,9178.553681,-73851.606007
1835.723611,-2516.700203,-5625.565159,-82278.656485
1835.726185,-4293.194464,-148.041188,-76762.768900
1835.728758,0.000000,888.247130,-80440.027290
1835.731331,-3701.029710,-6365.771101,-77222.426198
1835.733905,-592.164754,7550.100608,-77222.426198
1835.736478,-444.123565,888.247130,-80286.808190
1835.739051,-1480.411884,-1184.329507,-79214.274493
1835.741625,-2368.659014,1332.370696,-78294.959896
1835.744198,-740.205942,2220.617826,-77528.864398
1835.746772,-888.247130,-1036.288319,-78448.178995
1835.749345,-296.082377,2220.617826,-78294.959896
1835.751889,-888.247130,-592.164754,-80440.027290
1835.754434,-2812.782580,-2960.823768,-79980.369991
1835.756978,-3108.864956,1480.411884,-78448.178995
1835.759522,-4589.276840,-7846.182985,-79827.150892
1835.762066,-6957.935855,-1924.535449,-77682.083497
1835.764611,0.000000,4589.276840,-78141.740796
1835.767155,-2812.782580,-7550.100608,-80286.808190
1835.769699,-1480.411884,7994.224174,-78448.178995
1835.772243,-5181.441594,-6957.935855,-81818.999186
1835.774788,-6217.729913,-9622.677246,-77835.302597
1835.777332,-4737.318029,7550.100608,-75996.673402
1835.779876,-2664.741391,-5773.606348,-79827.150892
1835.782420,-2072.576638,7550.100608,-77528.864398
1835.784965,444.123565,-7550.100608,-84270.504780
1835.787509,-5921.647536,-3256.906145,-77682.083497
1835.790053,592.164754,23390.507767,-75077.358804
1835.792597,6365.771101,-3404.947333,-81665.780087
1835.795142,5329.482782,5921.647536,-74311.263306
1835.797686,-4885.359217,11399.171507,-80593.246390
1835.800230,-5181.441594,-21021.848753,-82431.875585
1835.802775,8438.347739,17468.860231,-75077.358804
1835.805319,-1924.535449,1184.329507,-83197.971083
1835.807863,6809.894666,9770.718434,-76149.892501
1835.810407,1480.411884,3552.988522,-79367.493593
1835.812952,444.123565,-6809.894666,-80440.027290
1835.815496,2072.576638,5033.400406,-77375.645298
1835.818040,2960.823768,6809.894666,-78141.740796
1835.820584,2516.700203,7550.100608,-78141.740796
1835.823129,2220.617826,1480.411884,-81359.341888
1835.825673,2960.823768,1184.329507,-79827.150892
1835.828217,0.000000,-4737.318029,-81206.122788
1835.830761,592.164754,12435.459826,-76303.111601
1835.833306,5921.647536,3849.070898,-77222.426198
1835.835850,3108.864956,1480.411884,-76762.768900
1835.838394,-1184.329507,3108.864956,-78294.959896
1835.840939,-1036.288319,3997.112087,-80746.465489
1835.843483,1184.329507,4589.276840,-81052.903688
1835.846027,-592.164754,1776.494261,-79214.274493
1835.848571,296.082377,-296.082377,-77988.521696
1835.851116,4293.194464,888.247130,-76456.330700
1835.853666,2220.617826,6809.894666,-79367.493593
1835.856216,6365.771101,2960.823768,-80440.027290
1835.858766,4441.235652,9030.512492,-78754.617194
1835.861316,1628.453072,5773.606348,-80593.246390
1835.863866,592.164754,6661.853478,-78907.836294
1835.866416,-148.041188,-1036.288319,-77069.207099
1835.868966,3256.906145,-1776.494261,-76915.987999
1835.871516,2368.659014,5625.565159,-77528.864398
1835.874066,2664.741391,4589.276840,-80440.027290
1835.876616,740.205942,9770.718434,-80440.027290
1835.879166,2664.741391,3552.988522,-80593.246390
1835.881717,-1480.411884,5921.647536,-76303.111601
1835.884267,888.247130,-1924.535449,-78601.398095
1835.886817,-1184.329507,-9474.636058,-76762.768900
1835.889367,-3108.864956,10066.800811,-76915.987999
1835.891917,296.082377,-7402.059420,-82278.656485
1835.894467,-2664.741391,-3256.906145,-80593.246390
1835.897017,3849.070898,15988.448347,-79673.931792
1835.899567,-2516.700203,-13915.871710,-81665.780087
1835.902117,-888.247130,9622.677246,-71859.757712
1835.904667,-6661.853478,-9326.594869,-80133.589091
1835.907217,-3701.029710,-6069.688724,-77222.426198
1835.909767,-740.205942,6957.935855,-79980.369991
1835.912317,-3108.864956,-8438.347739,-83964.066581
1835.914868,-2072.576638,12287.418637,-77988.521696
1835.917418,-3256.906145,-5921.647536,-81359.341888
1835.919968,-5033.400406,-10510.924376,-76915.987999
1835.922518,-2960.823768,2220.617826,-74924.139704
1835.925068,-2516.700203,444.123565,-78141.740796
1835.927618,2812.782580,-1628.453072,-81818.999186
1835.930168,-2368.659014,1332.370696,-81818.999186
1835.932718,-5477.523971,-148.041188,-81052.903688
1835.935268,-444.123565,1628.453072,-76762.768900
1835.937818,740.205942,-1332.370696,-77528.864398
1835.940368,148.041188,-5033.400406,-76456.330700
1835.942918,-2072.576638,-888.247130,-79367.493593
1835.945469,-2220.617826,3404.947333,-79980.369991
1835.948019,-4293.194464,3997.112087,-81512.560987
1835.950569,-4737.318029,-2516.700203,-80440.027290
1835.953119,-5625.565159,-5625.565159,-77375.645298
1835.955674,-5477.523971,-7105.977043,-76303.111601
1835.958229,-1776.494261,592.164754,-75690.235202
1835.960784,444.123565,740.205942,-79673.931792
1835.963339,-3552.988522,1332.370696,-79980.369991
1835.965895,-4737.318029,1036.288319,-82585.094684
1835.968450,-3552.988522,-9178.553681,-80440.027290
1835.971005,-1628.453072,3701.029710,-75843.454302
1835.973560,-2368.659014,6957.935855,-76762.768900
1835.976115,-3849.070898,-8734.430116,-78907.836294
1835.978670,1036.288319,3997.112087,-78141.740796
1835.981226,-6217.729913,-6957.935855,-82278.656485
1835.983781,1628.453072,15248.242405,-78141.740796
1835.986336,7105.977043,3256.906145,-81052.903688
1835.988891,3552.988522,1184.329507,-76303.111601
1835.991446,-1924.535449,11547.212695,-77988.521696
1835.994001,-2664.741391,-18505.148550,-81052.903688
1835.996556,7550.100608,12731.542202,-74770.920605
1835.999112,3256.906145,10066.800811,-81206.122788
1836.001667,-296.082377,6513.812290,-78601.398095
1836.004222,2664.741391,6809.894666,-79214.274493
1836.006777,1776.494261,-9030.512492,-80593.246390
1836.009332,2812.782580,5181.441594,-75843.454302
1836.011887,592.164754,6217.729913,-78141.740796
1836.014443,3701.029710,5477.523971,-77528.864398
1836.016998,3849.070898,4441.235652,-80286.808190
1836.019553,-740.205942,-444.123565,-81052.903688
1836.022108,-1332.370696,5625.565159,-79980.369991
1836.024663,3108.864956,-444.123565,-79673.931792
1836.027218,6957.935855,5477.523971,-75077.358804
1836.029774,1628.453072,2960.823768,-79367.493593
1836.032329,0.000000,-592.164754,-79520.712692
1836.034884,592.164754,888.247130,-80440.027290
1836.037442,148.041188,3701.029710,-80440.027290
1836.040001,0.000000,6513.812290,-77375.645298
1836.042560,148.041188,3997.112087,-77988.521696
1836.045118,2368.659014,1480.411884,-77835.302597
1836.047677,4293.194464,5181.441594,-77835.302597
1836.050235,3849.070898,3256.906145,-79520.712692
1836.052794,740.205942,11843.295072,-78448.178995
1836.055352,1924.535449,3849.070898,-81972.218286
1836.057911,1332.370696,2220.617826,-76303.111601
1836.060469,1628.453072,2368.659014,-78754.617194
1836.063028,-740.205942,-1480.411884,-78448.178995
1836.065586,3552.988522,9178.553681,-77069.207099
1836.068145,5625.565159,2220.617826,-79673.931792
1836.070704,740.205942,18209.066173,-77835.302597
1836.073262,-2220.617826,-3108.864956,-84423.723880
1836.075821,1332.370696,-10066.800811,-76609.549800
1836.078379,2220.617826,4737.318029,-75077.358804
1836.080938,-5477.523971,740.205942,-78141.740796
1836.083496,740.205942,5921.647536,-79367.493593
1836.086055,2516.700203,-5329.482782,-83044.751983
1836.088613,-2516.700203,2812.782580,-79673.931792
1836.091172,-2960.823768,2960.823768,-79520.712692
1836.093731,-3404.947333,-7254.018232,-76915.987999
1836.096289,-3108.864956,1628.453072,-75230.577904
1836.098848,-6661.853478,-5329.482782,-78448.178995
1836.101406,-1628.453072,3256.906145,-79214.274493
1836.103965,1184.329507,3404.947333,-83810.847481
1836.106523,-2812.782580,-10807.006753,-81665.780087
1836.109082,-888.247130,12583.501014,-73698.386908
1836.111640,-5625.565159,-7698.141797,-78141.740796
1836.114199,-740.205942,-1924.535449,-74311.263306
1836.116757,-3701.029710,2812.782580,-79367.493593
1836.119316,-2960.823768,-6809.894666,-81359.341888
1836.121875,148.041188,9030.512492,-79214.274493
1836.124433,-3997.112087,148.041188,-82738.313784
1836.126992,-1480.411884,1628.453072,-77069.207099
1836.129550,888.247130,-3552.988522,-75843.454302
1836.132109,740.205942,-2664.741391,-76762.768900
1836.134667,-2960.823768,2812.782580,-77375.645298
1836.137226,-3701.029710,5181.441594,-79827.150892
1836.139795,-5477.523971,-2960.823768,-82278.656485
1836.142357,-5033.400406,-4737.318029,-80440.027290
1836.144919,-5329.482782,-444.123565,-77222.426198
1836.147480,-1628.453072,-8882.471304,-77835.302597
1836.150042,-1332.370696,6365.771101,-74770.920605
1836.152603,-3849.070898,-4737.318029,-80593.246390
1836.155165,-4589.276840,-2812.782580,-79214.274493
1836.157726,-3256.906145,6957.935855,-79367.493593
1836.160288,-2516.700203,-4737.318029,-82125.437386
1836.162850,-1628.453072,3108.864956,-76456.330700
1836.165411,1036.288319,-6661.853478,-79367.493593
1836.167973,-7846.182985,-2960.823768,-75077.358804
1836.170534,740.205942,11991.336260,-79827.150892
1836.173096,6217.729913,-11251.130318,-81206.122788
1836.175657,4885.359217,25167.002028,-76303.111601
1836.178219,-2072.576638,-148.041188,-84270.504780
1836.180781,1036.288319,-5773.606348,-80440.027290
1836.183342,6513.812290,13767.830521,-72932.291410
1836.185904,-3404.947333,-1924.535449,-81512.560987
1836.188465,6957.935855,10658.965565,-76303.111601
1836.191027,3701.029710,3256.906145,-80440.027290
1836.193588,-4293.194464,2664.741391,-79827.150892
1836.196150,2072.576638,4737.318029,-79061.055394
1836.198712,4589.276840,1184.329507,-77069.207099
1836.201273,3256.906145,7105.977043,-76915.987999
1836.203835,-148.041188,5033.400406,-79061.055394
1836.206396,3849.070898,592.164754,-79367.493593
1836.208958,-296.082377,1480.411884,-80133.589091
1836.211520,-1628.453072,7402.059420,-79214.274493
1836.214081,296.082377,6809.894666,-77069.207099
1836.216643,1628.453072,1480.411884,-77375.645298
1836.219204,592.164754,296.082377,-78294.959896
1836.221766,1332.370696,1924.535449,-80593.246390
1836.224327,-444.123565,1628.453072,-79520.712692
1836.226889,2368.659014,4441.235652,-79214.274493
1836.229451,3997.112087,3849.070898,-78294.959896
1836.232012,4293.194464,4145.153275,-78601.398095
1836.234574,4885.359217,3404.947333,-80133.589091
1836.237135,3108.864956,8586.388927,-78448.178995
1836.239697,296.082377,8586.388927,-80133.589091
1836.242261,2960.823768,-4145.153275,-81206.122788
1836.244826,1036.288319,2516.700203,-76609.549800
1836.247390,-888.247130,4737.318029,-78754.617194
1836.249954,5181.441594,2960.823768,-79367.493593
1836.252519,5033.400406,5477.523971,-78754.617194
1836.255083,1332.370696,12731.542202,-79367.493593
1836.257647,-2368.659014,2220.617826,-81359.341888
1836.260212,2960.823768,296.082377,-78601.398095
1836.262776,-1036.288319,-4885.359217,-79061.055394
1836.265340,-2368.659014,-4885.359217,-75230.577904
1836.267904,888.247130,12731.542202,-78448.178995
1836.270469,3256.906145,-7550.100608,-86109.133975
1836.273033,-740.205942,6069.688724,-78141.740796
1836.275597,-5181.441594,3108.864956,-79980.369991
1836.278162,-6365.771101,-6809.894666,-75843.454302
1836.280726,3997.112087,-148.041188,-75230.577904
1836.283290,-9622.677246,-7994.224174,-77069.207099
1836.285855,740.205942,4145.153275,-80593.246390
1836.288419,-2220.617826,740.205942,-84423.723880
1836.290983,-2072.576638,-4145.153275,-81052.903688
1836.293548,-2812.782580,4589.276840,-76915.987999
1836.296112,-6217.729913,-8586.388927,-75996.673402
1836.298676,592.164754,3849.070898,-72472.634111
1836.301241,-6957.935855,-1036.288319,-81665.780087
1836.303805,2368.659014,-9178.553681,-82278.656485
1836.306369,1036.288319,7105.977043,-81206.122788
1836.308934,-4737.318029,-592.164754,-83044.751983
1836.311498,1332.370696,7105.977043,-75537.016103
1836.314062,444.123565,-7254.018232,-76762.768900
1836.316627,-2072.576638,-2664.741391,-74311.263306
1836.319191,-2812.782580,-444.123565,-79980.369991
1836.321755,-2220.617826,-1332.370696,-82278.656485
1836.324320,-6217.729913,888.247130,-81665.780087
1836.326884,-8290.306550,444.123565,-81818.999186
1836.329448,-592.164754,-8734.430116,-77835.302597
1836.332013,-4145.153275,-3997.112087,-75537.016103
1836.334577,-6809.894666,2812.782580,-75996.673402
1836.337141,-1776.494261,-6809.894666,-78754.617194
1836.339706,-2368.659014,3404.947333,-79980.369991
1836.342270,-2960.823768,888.247130,-83504.409282
1836.344836,-4145.153275,-2072.576638,-79520.712692
1836.347402,2664.741391,4145.153275,-75383.797003
1836.349968,148.041188,-14508.036463,-78141.740796
1836.352534,1924.535449,8882.471304,-74617.701505
1836.355100,3701.029710,8882.471304,-81818.999186
1836.357666,7846.182985,888.247130,-82125.437386
1836.360231,740.205942,13471.748144,-79827.150892
1836.362797,-5921.647536,-11991.336260,-81512.560987
1836.365363,4441.235652,7254.018232,-73238.729609
1836.367929,0.000000,7550.100608,-76762.768900
1836.370495,1184.329507,4885.359217,-80133.589091
1836.373061,5477.523971,3997.112087,-81818.999186
1836.375627,-888.247130,-888.247130,-80899.684589
1836.378193,444.123565,9918.759623,-78141.740796
1836.380759,2220.617826,4293.194464,-78141.740796
1836.383325,6809.894666,2664.741391,-75996.673402
1836.385891,-888.247130,2812.782580,-78907.836294
1836.388457,2072.576638,2960.823768,-79980.369991
1836.391022,1332.370696,2664.741391,-81052.903688
1836.393588,0.000000,3701.029710,-80440.027290
1836.396154,592.164754,7105.977043,-75843.454302
1836.398720,740.205942,-2960.823768,-77835.302597
1836.401286,1184.329507,3849.070898,-76915.987999
1836.403852,-2368.659014,3108.864956,-81206.122788
1836.406418,3256.906145,3552.988522,-81206.122788
1836.408984,3404.947333,5033.400406,-78754.617194
1836.411550,5033.400406,1924.535449,-79367.493593
1836.414116,4885.359217,9622.677246,-76456.330700
1836.416682,3997.112087,2072.576638,-79061.055394
1836.419248,-2812.782580,7846.182985,-76149.892501
1836.421814,1036.288319,9770.718434,-77988.521696
1836.424379,2220.617826,-888.247130,-81972.218286
1836.426945,7698.141797,-4441.235652,-79520.712692
1836.429511,-2664.741391,14952.160028,-75383.797003
1836.432077,6365.771101,8882.471304,-81206.122788
1836.434643,2368.659014,-1628.453072,-78601.398095
1836.437209,0.000000,2812.782580,-78754.617194
1836.439775,-7254.018232,-2664.741391,-79061.055394
1836.442341,1776.494261,4589.276840,-77988.521696
1836.444907,1332.370696,-6809.894666,-78601.398095
1836.447474,-2516.700203,-3552.988522,-78294.959896
1836.450042,0.000000,10807.006753,-79980.369991
1836.452609,-2664.741391,-8586.388927,-82278.656485
1836.455177,-1628.453072,4145.153275,-76149.892501
1836.457744,-9918.759623,-6809.894666,-77528.864398
1836.460312,-2516.700203,2664.741391,-74158.044206
1836.462879,-444.123565,-2072.576638,-80593.246390
1836.465446,-1628.453072,-8142.265362,-81665.780087
1836.468014,-296.082377,3849.070898,-80593.246390
1836.470581,-5773.606348,-2664.741391,-81359.341888
1836.473149,-1480.411884,1036.288319,-76915.987999
1836.475716,-2368.659014,-3997.112087,-75843.454302
1836.478284,-3256.906145,-2072.576638,-76303.111601
1836.480851,-444.123565,888.247130,-79214.274493
1836.483419,-2664.741391,-1628.453072,-82738.313784
1836.485986,-148.041188,5033.400406,-80593.246390
1836.488554,0.000000,4885.359217,-78907.836294
1836.491121,-1036.288319,-2812.782580,-77682.083497
1836.493689,-1036.288319,-6217.729913,-76303.111601
1836.496256,-2960.823768,296.082377,-75996.673402
1836.498823,-4441.235652,592.164754,-78601.398095
1836.501391,-5033.400406,-740.205942,-83351.190182
1836.503958,-2960.823768,-4145.153275,-81052.903688
1836.506526,-5625.565159,-4885.359217,-79827.150892
1836.509093,-148.041188,-444.123565,-78141.740796
1836.511661,-3849.070898,-8438.347739,-75843.454302
1836.514228,-2960.823768,4441.235652,-74311.263306
1836.516796,-5921.647536,-740.205942,-80440.027290
1836.519363,-2812.782580,6809.894666,-81206.122788
1836.521931,-1628.453072,-8290.306550,-83044.751983
1836.524498,-4145.153275,444.123565,-77835.302597
1836.527066,-1036.288319,2812.782580,-75537.016103
1836.529633,-888.247130,-740.205942,-75537.016103
1836.532200,5033.400406,17172.777854,-78294.959896
1836.534768,4145.153275,-4737.318029,-83504.409282
1836.537335,-2072.576638,5773.606348,-77222.426198
1836.539903,-4589.276840,4589.276840,-81206.122788
1836.542470,1776.494261,-3849.070898,-78294.959896
1836.545038,8290.306550,9770.718434,-75690.235202
1836.547605,-888.247130,1184.329507,-79214.274493
1836.550145,3256.906145,2960.823768,-80593.246390
1836.552684,4589.276840,5033.400406,-78294.959896
1836.555224,2516.700203,4293.194464,-79980.369991
1836.557764,2960.823768,8142.265362,-76762.768900
1836.560303,3701.029710,0.000000,-78141.740796
1836.562843,1332.370696,1184.329507,-78141.740796
1836.565383,1480.411884,3404.947333,-80593.246390
1836.567922,2220.617826,4293.194464,-79520.712692
1836.570462,-1776.494261,7550.100608,-78294.959896
1836.573001,3108.864956,1036.288319,-77682.083497
1836.575541,1332.370696,-1332.370696,-76149.892501
1836.578081,0.000000,5921.647536,-77835.302597
1836.580620,-1628.453072,4145.153275,-80133.589091
1836.583160,7846.182985,4737.318029,-80133.589091
1836.585699,4441.235652,10362.883188,-78448.178995
1836.588239,6809.894666,1924.535449,-80286.808190
1836.590779,1332.370696,3701.029710,-75996.673402
1836.593318,148.041188,7846.182985,-77528.864398
1836.595858,-444.123565,0.000000,-79214.274493
1836.598397,1628.453072,3256.906145,-79980.369991
1836.600937,4441.235652,2812.782580,-81359.341888
1836.603477,740.205942,740.205942,-78141.740796
1836.606016,2960.823768,19985.560434,-73085.510509
1836.608556,-5625.565159,-2072.576638,-81512.560987
1836.611096,296.082377,-5921.647536,-77835.302597
1836.613635,1036.288319,2368.659014,-78294.959896
1836.616175,-4737.318029,296.082377,-78294.959896
1836.618714,2960.823768,4441.235652,-79980.369991
1836.621254,-1776.494261,-9474.636058,-81206.122788
1836.623794,1332.370696,15248.242405,-76609.549800
1836.626333,-5033.400406,-11103.089130,-82891.532884
1836.628873,0.000000,2812.782580,-74158.044206
1836.631412,-2072.576638,2368.659014,-78754.617194
1836.633952,-9030.512492,-4885.359217,-78294.959896
1836.636492,3108.864956,6365.771101,-78601.398095
1836.639031,-5329.482782,-9474.636058,-82585.094684
1836.641571,-148.041188,740.205942,-78754.617194
1836.644111,-5477.523971,-888.247130,-79061.055394
1836.646650,444.123565,3997.112087,-77222.426198
1836.649190,-3552.988522,-5329.482782,-78754.617194
1836.651736,-592.164754,296.082377,-77375.645298
1836.654282,740.205942,-3997.112087,-79827.150892
1836.656828,1480.411884,-2072.576638,-80440.027290
1836.659374,1036.288319,6513.812290,-79673.931792
1836.661920,-1480.411884,4441.235652,-79673.931792
1836.664466,-888.247130,-8290.306550,-78907.836294
1836.667012,-2220.617826,-4737.318029,-75537.016103
1836.669558,-6217.729913,740.205942,-78294.959896
1836.672104,-6069.688724,-8142.265362,-77988.521696
1836.674651,-3108.864956,6217.729913,-78448.178995
1836.677197,1036.288319,-8290.306550,-84883.381178
1836.679743,-1628.453072,-1184.329507,-79520.712692
1836.682289,296.082377,-2664.741391,-78448.178995
1836.684835,-6957.935855,296.082377,-74464.482406
1836.687381,1184.329507,3108.864956,-77375.645298
1836.689927,-3997.112087,-4737.318029,-78294.959896
1836.692473,1628.453072,1036.288319,-81972.218286
1836.695019,-7994.224174,-5625.565159,-81512.560987
1836.697565,5181.441594,7254.018232,-77682.083497
1836.700111,2516.700203,-592.164754,-79367.493593
1836.702657,2664.741391,14211.954086,-75843.454302
1836.705203,1628.453072,1628.453072,-80440.027290
1836.707749,-1332.370696,-8882.471304,-78907.836294
1836.710296,3552.988522,8142.265362,-76149.892501
1836.712842,-1036.288319,10214.842000,-80440.027290
1836.715388,3997.112087,4885.359217,-79520.712692
1836.717934,2072.576638,3552.988522,-79061.055394
1836.720480,-1036.288319,-2072.576638,-80440.027290
1836.723026,2220.617826,3552.988522,-76762.768900
1836.725572,740.205942,7994.224174,-77988.521696
1836.728118,3997.112087,7254.018232,-76915.987999
1836.730664,4293.194464,2664.741391,-78601.398095
1836.733210,1924.535449,5773.606348,-79367.493593
1836.735756,-1184.329507,1924.535449,-82125.437386
1836.738302,2812.782580,3701.029710,-78448.178995
1836.740848,3701.029710,8438.347739,-75996.673402
1836.743394,-444.123565,-1332.370696,-77988.521696
1836.745941,-444.123565,-740.205942,-77528.864398
1836.748487,444.123565,3404.947333,-79980.369991
1836.751033,5477.523971,7254.018232,-80286.808190
1836.753585,3256.906145,9474.636058,-81359.341888
1836.756136,9326.594869,5329.482782,-80746.465489
1836.758688,3552.988522,-740.205942,-77988.521696
1836.761240,592.164754,12287.418637,-74770.920605
1836.763792,888.247130,9622.677246,-79214.274493
1836.766343,7402.059420,-5329.482782,-80899.684589
1836.768895,5329.482782,13471.748144,-78141.740796
1836.771447,3552.988522,9326.594869,-82891.532884
1836.773999,-888.247130,1924.535449,-77682.083497
1836.776551,-148.041188,0.000000,-77835.302597
1836.779102,-7402.059420,-8142.265362,-76609.549800
1836.781654,4885.359217,11547.212695,-75843.454302
1836.784206,2812.782580,-7994.224174,-81665.780087
1836.786758,-6513.812290,3256.906145,-79520.712692
1836.789310,-296.082377,12435.459826,-80440.027290
1836.791861,-6809.894666,-9474.636058,-80746.465489
1836.794413,888.247130,6513.812290,-74004.825107
1836.796965,-6365.771101,-12879.583391,-78601.398095
1836.799517,444.123565,1480.411884,-74924.139704
1836.802069,592.164754,0.000000,-81052.903688
1836.804620,-6069.688724,-3552.988522,-82278.656485
1836.807172,-5773.606348,2516.700203,-80440.027290
1836.809724,-2072.576638,-2664.741391,-79061.055394
1836.812276,-2072.576638,-444.123565,-76609.549800
1836.814827,740.205942,1184.329507,-75996.673402
1836.817379,-6217.729913,-5329.482782,-78601.398095
1836.819931,-2220.617826,3404.947333,-78601.398095
1836.822483,-1036.288319,296.082377,-81665.780087
1836.825035,2072.576638,4589.276840,-80133.589091
1836.827586,-2960.823768,3404.947333,-79367.493593
1836.830138,-296.082377,-2960.823768,-76762.768900
1836.832690,-592.164754,-4145.153275,-76303.111601
1836.835242,-6957.935855,-3997.112087,-78601.398095
1836.837794,-6069.688724,-3997.112087,-78448.178995
1836.840345,-4293.194464,-3701.029710,-81512.560987
1836.842897,-1332.370696,1924.535449,-79520.712692
1836.845449,-3108.864956,-4885.359217,-79980.369991
1836.848001,-888.247130,-592.164754,-78141.740796
1836.850553,-3552.988522,-6365.771101,-77222.426198
1836.853104,-3256.906145,6513.812290,-75843.454302
1836.855660,-4293.194464,-5329.482782,-79520.712692
1836.858216,-740.205942,4145.153275,-80286.808190
1836.860772,444.123565,-10214.842000,-83810.847481
1836.863328,1184.329507,7402.059420,-77222.426198
1836.865884,4737.318029,22650.301825,-77835.302597
1836.868440,5477.523971,-8882.471304,-80440.027290
1836.870996,1924.535449,7994.224174,-73391.948708
1836.873552,-5329.482782,-296.082377,-81818.999186
1836.876108,4145.153275,-2368.659014,-78907.836294
1836.878664,6217.729913,12435.459826,-77682.083497
1836.881220,-148.041188,11399.171507,-80133.589091
1836.883776,2220.617826,-1480.411884,-81665.780087
1836.886332,4293.194464,-4589.276840,-77682.083497
1836.888888,-1480.411884,6513.812290,-77069.207099
1836.891444,3404.947333,7550.100608,-77375.645298
1836.894000,5181.441594,5773.606348,-78448.178995
1836.896556,2220.617826,1776.494261,-80133.589091
1836.899112,-296.082377,-592.164754,-81206.122788
1836.901668,-1184.329507,8734.430116,-78754.617194
1836.904224,2368.659014,2960.823768,-79367.493593
1836.906780,888.247130,3404.947333,-76609.549800
1836.909336,-2368.659014,-444.123565,-76915.987999
1836.911892,296.082377,-740.205942,-78448.178995
1836.914448,2960.823768,6513.812290,-78907.836294
1836.917004,6809.894666,8438.347739,-80440.027290
1836.919560,4589.276840,4589.276840,-80286.808190
1836.922116,4441.235652,7402.059420,-77069.207099
1836.924672,-2220.617826,296.082377,-78601.398095
1836.927228,-2516.700203,3404.947333,-78141.740796
1836.929784,5477.523971,-3256.906145,-79520.712692
1836.932339,3701.029710,10658.965565,-77069.207099
1836.934895,8882.471304,15396.283594,-81972.218286
1836.937451,1924.535449,-6069.688724,-82891.532884
1836.940007,296.082377,2516.700203,-76149.892501
1836.942563,-9030.512492,-2220.617826,-78448.178995
1836.945119,-1480.411884,3404.947333,-77069.207099
1836.947675,5921.647536,-148.041188,-79520.712692
1836.950231,-4885.359217,-3404.947333,-81052.903688
1836.952787,444.123565,8882.471304,-81818.999186
1836.955343,-6513.812290,-11103.089130,-81972.218286
1836.957903,-1036.288319,5773.606348,-75230.577904
1836.960463,-7105.977043,-4885.359217,-77069.207099
1836.963022,2516.700203,2812.782580,-74770.920605
1836.965582,-1776.494261,-3997.112087,-80899.684589
1836.968141,-5033.400406,-6069.688724,-81359.341888
1836.970701,-4737.318029,5921.647536,-77988.521696
1836.973261,-1776.494261,0.000000,-80286.808190
1836.975820,296.082377,-1480.411884,-76762.768900
1836.978380,-3108.864956,-444.123565,-76303.111601
1836.980940,-3701.029710,-4145.153275,-77528.864398
1836.983499,2812.782580,0.000000,-79673.931792
1836.986059,1776.494261,1628.453072,-80746.465489
1836.988619,-2516.700203,2664.741391,-80593.246390
1836.991178,-592.164754,3701.029710,-79214.274493
1836.993738,296.082377,-3108.864956,-76303.111601
1836.996298,-7550.100608,-2368.659014,-78448.178995
1836.998857,-7550.100608,-1480.411884,-78907.836294
1837.001417,-148.041188,-8142.265362,-79673.931792
1837.003976,592.164754,-740.205942,-78907.836294
1837.006536,-4589.276840,2516.700203,-79827.150892
1837.009096,0.000000,-5329.482782,-80286.808190
1837.011655,-1776.494261,-4293.194464,-76915.987999
1837.014215,-5477.523971,9326.594869,-75537.016103
1837.016775,-4737.318029,-6809.894666,-79673.931792
1837.019334,1036.288319,5477.523971,-76915.987999
1837.021894,-2516.700203,-7550.100608,-82431.875585
1837.024454,0.000000,148.041188,-77528.864398
1837.027013,4737.318029,21021.848753,-79980.369991
1837.029573,6365.771101,-7402.059420,-80899.684589
1837.032132,1332.370696,13915.871710,-73545.167808
1837.034692,-5477.523971,-7254.018232,-81665.780087
1837.037252,4885.359217,-148.041188,-75230.577904
1837.039811,2664.741391,12435.459826,-78601.398095
1837.042371,4737.318029,5477.523971,-80440.027290
1837.044931,6661.853478,5921.647536,-80899.684589
1837.047490,-1184.329507,-2072.576638,-80440.027290
1837.050050,444.123565,-592.164754,-78294.959896
1837.052610,2072.576638,9770.718434,-74924.139704
1837.055169,5625.565159,8438.347739,-76915.987999
1837.057729,1924.535449,0.000000,-80133.589091
1837.060291,3552.988522,2960.823768,-79673.931792
1837.062853,296.082377,3849.070898,-80746.465489
1837.065415,2220.617826,3404.947333,-79827.150892
1837.067977,296.082377,2812.782580,-77528.864398
1837.070539,-1480.411884,1036.288319,-75996.673402
1837.073101,1184.329507,1332.370696,-76915.987999
1837.075663,5033.400406,10214.842000,-78294.959896
1837.078225,7402.059420,6365.771101,-82125.437386
1837.080787,7402.059420,7994.224174,-80286.808190
1837.083349,1480.411884,4441.235652,-79520.712692
1837.085911,-148.041188,444.123565,-76149.892501
1837.088473,1628.453072,592.164754,-77375.645298
1837.091035,1776.494261,9474.636058,-77682.083497
1837.093597,8438.347739,6069.688724,-81052.903688
1837.096159,5329.482782,9918.759623,-78141.740796
1837.098721,-2220.617826,5477.523971,-81052.903688
1837.101283,-8586.388927,-5033.400406,-78754.617194
1837.103845,-1332.370696,-1332.370696,-76303.111601
1837.106407,5033.400406,740.205942,-75690.235202
1837.108969,-7254.018232,7698.141797,-78601.398095
1837.111531,148.041188,-444.123565,-82891.532884
1837.114093,-4737.318029,-3404.947333,-78907.836294
1837.116655,-2516.700203,2960.823768,-79520.712692
1837.119217,-6069.688724,-9770.718434,-77069.207099
1837.121779,1776.494261,740.205942,-75843.454302
1837.124341,-4885.359217,-1480.411884,-79214.274493
1837.126903,-2812.782580,-4589.276840,-83044.751983
1837.129465,-4885.359217,0.000000,-80133.589091
1837.132027,-3404.947333,-4885.359217,-80593.246390
1837.134589,-3108.864956,3849.070898,-76303.111601
1837.137151,1480.411884,-1776.494261,-77528.864398
1837.139713,-444.123565,-5329.482782,-78448.178995
1837.142275,-1480.411884,-1036.288319,-79214.274493
1837.144837,-1036.288319,3849.070898,-81359.341888
1837.147399,148.041188,7994.224174,-79367.493593
1837.149961,-592.164754,-592.164754,-79673.931792
1837.152523,-5181.441594,-2664.741391,-76915.987999
1837.155085,-5181.441594,-3701.029710,-77528.864398
1837.157647,-7698.141797,-6217.729913,-77835.302597
1837.160209,-1924.535449,-444.123565,-79673.931792
1837.162779,-3404.947333,-3997.112087,-81818.999186
1837.165343,-1628.453072,-1332.370696,-78601.398095
1837.167908,-2812.782580,-296.082377,-79061.055394
1837.170472,-444.123565,-2220.617826,-77682.083497
1837.173036,-5181.441594,-1480.411884,-77375.645298
1837.175600,-592.164754,-740.205942,-79214.274493
1837.178164,-5329.482782,-148.041188,-78601.398095
1837.180728,3701.029710,8586.388927,-78907.836294
1837.183293,3997.112087,4145.153275,-81512.560987
1837.185857,5033.400406,1924.535449,-78141.740796
1837.188421,148.041188,13027.624579,-78601.398095
1837.190985,-2812.782580,-16284.530724,-81665.780087
1837.193549,5477.523971,10658.965565,-73085.510509
1837.196114,-2516.700203,7846.182985,-81818.999186
1837.198678,4293.194464,5181.441594,-79061.055394
1837.201242,5477.523971,8290.306550,-79061.055394
1837.203806,-1036.288319,-1332.370696,-81512.560987
1837.206370,1332.370696,6069.688724,-78141.740796
1837.208934,2072.576638,9622.677246,-77682.083497
1837.211499,7254.018232,-1628.453072,-77069.207099
1837.214063,1480.411884,9770.718434,-75843.454302
1837.216627,-2220.617826,1036.288319,-81512.560987
1837.219191,2072.576638,2664.741391,-81052.903688
1837.221755,296.082377,2664.741391,-80746.465489
1837.224319,592.164754,3256.906145,-77375.645298
1837.226884,-444.123565,2072.576638,-76149.892501
1837.229448,1332.370696,1332.370696,-77988.521696
1837.232012,2368.659014,4589.276840,-78754.617194
1837.234576,7105.977043,10510.924376,-80133.589091
1837.237140,7254.018232,4885.359217,-79980.369991
1837.239704,0.000000,9770.718434,-78754.617194
1837.242269,-5477.523971,-4441.235652,-79673.931792
1837.244833,5625.565159,8142.265362,-75537.016103
1837.247397,1924.535449,1036.288319,-79520.712692
1837.249961,7105.977043,13323.706956,-78141.740796
1837.252525,-592.164754,4145.153275,-81512.560987
1837.255089,-1776.494261,-3552.988522,-79673.931792
1837.257654,-2220.617826,-1776.494261,-77835.302597
1837.260218,-7105.977043,1332.370696,-77988.521696
1837.262782,4145.153275,5477.523971,-77835.302597
1837.265348,148.041188,-7994.224174,-81665.780087
1837.267914,444.123565,11251.130318,-78907.836294
1837.270480,-8142.265362,-14359.995275,-84576.942979
1837.273046,-2516.700203,4145.153275,-73238.729609
1837.275612,-3108.864956,0.000000,-78448.178995
1837.278178,-2960.823768,-3701.029710,-76915.987999
1837.280745,-740.205942,1184.329507,-78907.836294
1837.283311,-5773.606348,-6513.812290,-83351.190182
1837.285877,-5921.647536,-1480.411884,-80593.246390
1837.288443,148.041188,1776.494261,-78907.836294
1837.291009,-1776.494261,-2368.659014,-76149.892501
1837.293575,-296.082377,0.000000,-75843.454302
1837.296141,-4145.153275,-1036.288319,-78294.959896
1837.298707,-444.123565,592.164754,-81818.999186
1837.301273,444.123565,4885.359217,-81359.341888
1837.303839,-148.041188,1480.411884,-79673.931792
1837.306405,-1924.535449,-3849.070898,-78141.740796
1837.308971,-5477.523971,-5181.441594,-76609.549800
1837.311537,-6957.935855,-6513.812290,-77222.426198
1837.314103,-5921.647536,-3552.988522,-79980.369991
1837.316670,-1332.370696,-1036.288319,-79520.712692
1837.319236,1776.494261,3256.906145,-81206.122788
1837.321802,-3552.988522,-3997.112087,-79980.369991
1837.324368,-740.205942,-592.164754,-76762.768900
1837.326934,-9326.594869,-6661.853478,-77375.645298
1837.329500,2812.782580,3108.864956,-76456.330700
1837.332066,-4737.318029,-4441.235652,-80286.808190
1837.334632,-888.247130,8142.265362,-79827.150892
1837.337198,7846.182985,-148.041188,-82431.875585
1837.339764,5033.400406,888.247130,-78601.398095
1837.342330,148.041188,14211.954086,-76609.549800
1837.344896,-5773.606348,-16728.654289,-81206.122788
1837.347464,4885.359217,9918.759623,-72472.634111
1837.350031,-740.205942,8438.347739,-81512.560987
1837.352598,6957.935855,7550.100608,-80440.027290
1837.355165,4441.235652,8142.265362,-80593.246390
1837.357732,-296.082377,-3404.947333,-81359.341888
1837.360300,148.041188,5921.647536,-76609.549800
1837.362867,4145.153275,148.041188,-78294.959896
1837.365434,4737.318029,3108.864956,-74924.139704
1837.368001,1332.370696,9326.594869,-77835.302597
1837.370568,1480.411884,0.000000,-81818.999186
1837.373136,2220.617826,1628.453072,-81512.560987
1837.375703,-148.041188,4737.318029,-79367.493593
1837.378270,148.041188,3552.988522,-76609.549800
1837.380837,3404.947333,444.123565,-76915.987999
1837.383404,2664.741391,1776.494261,-77682.083497
1837.385972,7254.018232,6365.771101,-79980.369991
1837.388539,5477.523971,9622.677246,-80593.246390
1837.391106,5181.441594,9770.718434,-79367.493593
1837.393673,-3256.906145,2072.576638,-80133.589091
1837.396240,2516.700203,-592.164754,-77069.207099
1837.398808,3404.947333,-296.082377,-77988.521696
1837.401375,6217.729913,15544.324782,-78294.959896
1837.403942,2812.782580,5329.482782,-81359.341888
1837.406509,3404.947333,888.247130,-79673.931792
1837.409076,-7550.100608,-1628.453072,-78754.617194
1837.411643,-1628.453072,2368.659014,-77988.521696
1837.414211,3997.112087,-6365.771101,-78141.740796
1837.416778,-592.164754,1924.535449,-76609.549800
1837.419345,1036.288319,6365.771101,-79980.369991
1837.421912,-7846.182985,-4885.359217,-80899.684589
1837.424479,-2664.741391,4589.276840,-78601.398095
1837.427047,-6809.894666,-9918.759623,-78907.836294
1837.429614,2368.659014,2664.741391,-75077.358804
1837.432181,-5477.523971,-2072.576638,-77835.302597
1837.434748,-2368.659014,-2368.659014,-80440.027290
1837.437315,-3404.947333,-888.247130,-80593.246390
1837.439883,-2516.700203,-7254.018232,-82738.313784
1837.442450,-2960.823768,1924.535449,-76915.987999
1837.445017,-4293.194464,2368.659014,-76149.892501
1837.447584,-1036.288319,2220.617826,-77069.207099
1837.450152,-444.123565,-4737.318029,-80440.027290
1837.452720,-592.164754,3701.029710,-79980.369991
1837.455289,-1332.370696,2220.617826,-81512.560987
1837.457857,-2220.617826,-3997.112087,-79980.369991
1837.460425,-6069.688724,-2368.659014,-77222.426198
1837.462993,-8142.265362,-8142.265362,-79061.055394
1837.465561,-8586.388927,-6217.729913,-75690.235202
1837.468129,-2812.782580,3552.988522,-78754.617194
1837.470697,-1628.453072,2812.782580,-82431.875585
1837.473265,1184.329507,-3997.112087,-80899.684589
1837.475833,-8142.265362,1480.411884,-77069.207099
1837.478401,-8290.306550,-7698.141797,-77682.083497
1837.480969,-3849.070898,6217.729913,-74924.139704
1837.483538,1628.453072,-5329.482782,-81052.903688
1837.486106,3849.070898,888.247130,-77222.426198
1837.488674,2516.700203,18653.189738,-81818.999186
1837.491242,9622.677246,-6957.935855,-82278.656485
1837.493810,-2368.659014,10955.047942,-74158.044206
1837.496378,-3404.947333,11251.130318,-76609.549800
1837.498946,2368.659014,-6217.729913,-78294.959896
1837.501514,10955.047942,11843.295072,-75996.673402
1837.504082,3997.112087,12435.459826,-81206.122788
1837.506650,296.082377,-3404.947333,-84270.504780
1837.509218,2072.576638,8290.306550,-76149.892501
1837.511786,-1924.535449,-6957.935855,-80440.027290
1837.514355,7254.018232,14359.995275,-73085.510509
1837.516923,5773.606348,4441.235652,-78448.178995
1837.519491,2812.782580,148.041188,-79520.712692
1837.522059,592.164754,3701.029710,-79827.150892
1837.524627,1036.288319,3256.906145,-79980.369991
1837.527195,1776.494261,4293.194464,-77375.645298
1837.529763,-296.082377,2516.700203,-78141.740796
1837.532331,6365.771101,2516.700203,-76149.892501
1837.534899,6217.729913,5033.400406,-79827.150892
1837.537467,5921.647536,9178.553681,-80593.246390
1837.540035,6661.853478,1924.535449,-80133.589091
1837.542604,-4737.318029,13471.748144,-76149.892501
1837.545172,3256.906145,1924.535449,-79520.712692
1837.547740,2516.700203,-888.247130,-77528.864398
1837.550308,9918.759623,12879.583391,-76762.768900
1837.552877,-296.082377,4885.359217,-81818.999186
1837.555446,1184.329507,1776.494261,-78601.398095
1837.558015,-3256.906145,-148.041188,-77069.207099
1837.560584,-6217.729913,-1776.494261,-77988.521696
1837.563153,1924.535449,-1036.288319,-77682.083497
1837.565722,-3552.988522,3701.029710,-77375.645298
1837.568291,2960.823768,444.123565,-81972.218286
1837.570860,-4885.359217,-4145.153275,-79214.274493
1837.573429,-296.082377,3256.906145,-78907.836294
1837.575998,-7105.977043,-8882.471304,-79673.931792
1837.578567,-444.123565,-3108.864956,-74924.139704
1837.581136,-5625.565159,5181.441594,-76762.768900
1837.583705,-3404.947333,-4737.318029,-82585.094684
1837.586274,-740.205942,1184.329507,-80286.808190
1837.588843,-4589.276840,-5329.482782,-81665.780087
1837.591412,-5773.606348,-1332.370696,-76456.330700
1837.593981,-740.205942,592.164754,-76149.892501
1837.596550,-888.247130,-3256.906145,-77682.083497
1837.599119,740.205942,2368.659014,-79980.369991
1837.601688,-1776.494261,2812.782580,-82738.313784
1837.604257,-296.082377,1036.288319,-80593.246390
1837.606826,-8290.306550,-4441.235652,-77528.864398
1837.609395,-3552.988522,-3404.947333,-75996.673402
1837.611964,-10214.842000,-5921.647536,-76915.987999
1837.614533,-3108.864956,-7846.182985,-78601.398095
1837.617102,-444.123565,4737.318029,-78754.617194
1837.619671,296.082377,740.205942,-84270.504780
1837.622240,-1628.453072,148.041188,-80746.465489
1837.624809,-7994.224174,-6957.935855,-77835.302597
1837.627378,-3997.112087,3404.947333,-74311.263306
1837.629947,-3108.864956,-8882.471304,-78141.740796
1837.632516,3552.988522,3404.947333,-76456.330700
1837.635085,5477.523971,17616.901420,-84117.285680
1837.637654,5773.606348,-7994.224174,-83197.971083
1837.640223,1332.370696,18357.107362,-74464.482406
1837.642792,-5329.482782,-11843.295072,-83044.751983
1837.645361,5477.523971,1332.370696,-71093.662214
1837.647930,1628.453072,15988.448347,-76149.892501
1837.650499,2960.823768,3997.112087,-81359.341888
1837.653068,7402.059420,6957.935855,-81512.560987
1837.655637,-592.164754,4145.153275,-81972.218286
1837.658206,-3997.112087,-148.041188,-79980.369991
1837.660775,4441.235652,8142.265362,-74004.825107
1837.663344,6661.853478,6513.812290,-76303.111601
1837.665913,5921.647536,888.247130,-78754.617194
1837.668482,444.123565,4737.318029,-80133.589091
1837.671051,-1036.288319,2368.659014,-80746.465489
1837.673620,2072.576638,5033.400406,-79827.150892
1837.676189,0.000000,4737.318029,-77835.302597
1837.678758,4145.153275,5181.441594,-75996.673402
1837.681327,9326.594869,-1184.329507,-78907.836294
1837.683896,4737.318029,8142.265362,-77375.645298
1837.686465,2960.823768,9918.759623,-81512.560987
1837.689034,-148.041188,-2220.617826,-79827.150892
1837.691603,1924.535449,15100.201217,-76149.892501
1837.694171,2368.659014,3701.029710,-80899.684589
1837.696740,5625.565159,0.000000,-77835.302597
1837.699309,-1776.494261,7698.141797,-78448.178995
1837.701878,-3404.947333,-3108.864956,-80593.246390
1837.704447,5477.523971,3404.947333,-77528.864398
1837.707016,-6513.812290,296.082377,-78754.617194
1837.709585,-2960.823768,592.164754,-78907.836294
1837.712154,1332.370696,-6217.729913,-81206.122788
1837.714723,-1628.453072,8290.306550,-77222.426198
1837.717292,-5329.482782,-5773.606348,-82431.875585
1837.719861,-4589.276840,-2072.576638,-75383.797003
1837.722430,-4885.359217,-1628.453072,-76762.768900
1837.724999,-4589.276840,-2960.823768,-77682.083497
1837.727568,-1924.535449,-1480.411884,-79827.150892
1837.730137,-5625.565159,2220.617826,-80440.027290
1837.732706,-6217.729913,-4885.359217,-82585.094684
1837.735274,-1628.453072,-148.041188,-77375.645298
1837.737843,444.123565,1036.288319,-75843.454302
1837.740412,-3997.112087,-3108.864956,-77375.645298
1837.742981,-1480.411884,2812.782580,-77835.302597
1837.745550,-296.082377,2960.823768,-81052.903688
1837.748119,-1924.535449,2664.741391,-81512.560987
1837.750688,-4145.153275,-444.123565,-80899.684589
1837.753257,-6365.771101,-5921.647536,-77528.864398
1837.755826,-7994.224174,-8734.430116,-76149.892501
1837.758395,-5477.523971,-7550.100608,-77222.426198
1837.760964,-2072.576638,-5033.400406,-79061.055394
1837.763533,-1332.370696,4589.276840,-80746.465489
1837.766102,-296.082377,1184.329507,-81512.560987
1837.768671,-6069.688724,-5773.606348,-79214.274493
1837.771240,-3404.947333,2664.741391,-75230.577904
1837.773809,-5033.400406,-15248.242405,-77222.426198
1837.776378,3552.988522,10807.006753,-74158.044206
1837.778948,8586.388927,2072.576638,-83197.971083
1837.781517,6661.853478,8586.388927,-80440.027290
1837.784086,-148.041188,17912.983796,-80440.027290
1837.786655,-6513.812290,-17616.901420,-82278.656485
1837.789224,5033.400406,1480.411884,-70940.443115
1837.791793,-148.041188,11547.212695,-77069.207099
1837.794362,5921.647536,4885.359217,-80440.027290
1837.796931,5773.606348,7105.977043,-82278.656485
1837.799500,1628.453072,4145.153275,-83504.409282
1837.802069,-1480.411884,740.205942,-80286.808190
1837.804638,3404.947333,11991.336260,-74464.482406
1837.807207,6513.812290,1480.411884,-75996.673402
1837.809776,6365.771101,2368.659014,-76915.987999
1837.812345,0.000000,888.247130,-78907.836294
1837.814914,148.041188,4293.194464,-82585.094684
1837.817484,-148.041188,5921.647536,-81359.341888
1837.820053,6217.729913,3552.988522,-78141.740796
1837.822622,2516.700203,2812.782580,-75077.358804
1837.825191,6069.688724,6809.894666,-77528.864398
1837.827760,9474.636058,-1332.370696,-80593.246390
1837.830329,888.247130,11399.171507,-79061.055394
1837.832898,1184.329507,5329.482782,-81818.999186
1837.835467,444.123565,5477.523971,-77375.645298
1837.838036,8290.306550,16284.530724,-78754.617194
1837.840605,740.205942,-7402.059420,-82738.313784
1837.843174,2664.741391,-5181.441594,-77069.207099
1837.845743,-2072.576638,5477.523971,-78294.959896
1837.848312,-2220.617826,740.205942,-80899.684589
1837.850881,5181.441594,1628.453072,-77988.521696
1837.853450,-13175.665768,-1332.370696,-78601.398095
1837.856019,2368.659014,2812.782580,-79520.712692
1837.858589,-3256.906145,-4293.194464,-80286.808190
1837.861157,1776.494261,-592.164754,-79520.712692
1837.863726,-8734.430116,-3256.906145,-77375.645298
1837.866294,-3849.070898,296.082377,-77375.645298
1837.868863,-3701.029710,-740.205942,-77682.083497
1837.871431,592.164754,-6661.853478,-82585.094684
1837.874000,-6217.729913,1332.370696,-78448.178995
1837.876568,-6217.729913,-444.123565,-81206.122788
1837.879137,2220.617826,-2368.659014,-77835.302597
1837.881705,-888.247130,-2812.782580,-77988.521696
1837.884274,-3256.906145,888.247130,-76456.330700
1837.886842,-1480.411884,1924.535449,-77528.864398
1837.889411,444.123565,148.041188,-80593.246390
1837.891979,-1776.494261,-296.082377,-81512.560987
1837.894548,-5625.565159,-4145.153275,-79980.369991
1837.897116,-7254.018232,-5477.523971,-77682.083497
1837.899685,-8882.471304,-8734.430116,-77682.083497
1837.902253,-1184.329507,-2664.741391,-75537.016103
1837.904822,-1924.535449,3404.947333,-79367.493593
1837.907391,1332.370696,-296.082377,-81512.560987
1837.909959,-3552.988522,-3256.906145,-80746.465489
1837.912528,-3256.906145,-1184.329507,-78601.398095
1837.915096,-8290.306550,-7105.977043,-76303.111601
1837.917665,-148.041188,11843.295072,-74924.139704
1837.920233,7550.100608,-7550.100608,-80440.027290
1837.922802,7994.224174,-1332.370696,-79827.150892
1837.925370,-1036.288319,19393.395680,-79827.150892
1837.927939,-3701.029710,-15692.365970,-84423.723880
1837.930507,6217.729913,11103.089130,-72319.415011
1837.933076,-1776.494261,7402.059420,-78754.617194
1837.935644,6957.935855,3404.947333,-77069.207099
1837.938213,4293.194464,7846.182985,-79061.055394
1837.940781,-1480.411884,4145.153275,-83504.409282
1837.943350,1924.535449,148.041188,-81665.780087
1837.945918,4145.153275,7550.100608,-75996.673402
1837.948487,5773.606348,5477.523971,-75230.577904
1837.951055,-296.082377,2220.617826,-77835.302597
1837.953624,1036.288319,2072.576638,-78907.836294
1837.956192,-1480.411884,2664.741391,-81665.780087
1837.958761,1628.453072,3701.029710,-80593.246390
1837.961329,2960.823768,9474.636058,-76456.330700
1837.963898,7254.018232,3108.864956,-78141.740796
1837.966466,5773.606348,-296.082377,-76915.987999
1837.969034,5625.565159,9770.718434,-77682.083497
1837.971602,-592.164754,1036.288319,-81206.122788
1837.974170,1924.535449,11695.253884,-78907.836294
1837.976738,9030.512492,5773.606348,-81818.999186
1837.979306,4737.318029,1332.370696,-76609.549800
1837.981874,-1036.288319,7846.182985,-77375.645298
1837.984442,-5625.565159,-5477.523971,-79980.369991
1837.987011,3404.947333,3108.864956,-77835.302597
1837.989579,-2812.782580,-444.123565,-81052.903688
1837.992147,1332.370696,5033.400406,-77528.864398
1837.994715,-3108.864956,-4145.153275,-80440.027290
1837.997283,-740.205942,4145.153275,-77528.864398
1837.999851,-5477.523971,-9770.718434,-82125.437386
1838.002419,-3108.864956,3108.864956,-75230.577904
1838.004987,-6661.853478,-1332.370696,-79980.369991
1838.007555,0.000000,-2960.823768,-78294.959896
1838.010124,-4589.276840,-2960.823768,-78601.398095
1838.012692,-4885.359217,-2368.659014,-78448.178995
1838.015260,-3849.070898,-740.205942,-79061.055394
1838.017828,-2220.617826,2072.576638,-79214.274493
1838.020396,-1036.288319,-592.164754,-79520.712692
1838.022964,-1480.411884,-592.164754,-78601.398095
1838.025532,-888.247130,2220.617826,-76915.987999
1838.028100,-3552.988522,-592.164754,-78294.959896
1838.030668,-2072.576638,1776.494261,-78601.398095
1838.033237,-5625.565159,-5477.523971,-81052.903688
1838.035805,-11547.212695,-6809.894666,-77528.864398
1838.038373,-4737.318029,-4589.276840,-79673.931792
1838.040941,-1628.453072,-3849.070898,-77528.864398
1838.043509,2960.823768,3404.947333,-78754.617194
1838.046077,-7550.100608,-1924.535449,-78601.398095
1838.048645,-5477.523971,-6661.853478,-79214.274493
1838.051213,-7105.977043,6957.935855,-77682.083497
1838.053781,-1332.370696,-9622.677246,-81818.999186
1838.056350,5329.482782,4737.318029,-74311.263306
1838.058918,4441.235652,13915.871710,-80440.027290
1838.061486,4885.359217,-5477.523971,-81665.780087
1838.064054,-444.123565,12731.542202,-76303.111601
1838.066622,-3849.070898,-6809.894666,-82738.313784
1838.069190,3701.029710,4441.235652,-74464.482406
1838.071758,4145.153275,15396.283594,-77069.207099
1838.074326,5773.606348,4441.235652,-79214.274493
1838.076894,2960.823768,1628.453072,-81206.122788
1838.079462,1184.329507,6957.935855,-79673.931792
1838.082030,-1036.288319,-444.123565,-81818.999186
1838.084598,6661.853478,6069.688724,-74311.263306
1838.087166,7254.018232,10807.006753,-75843.454302
1838.089734,296.082377,-1480.411884,-79214.274493
1838.092302,2664.741391,148.041188,-79520.712692
1838.094870,-592.164754,2960.823768,-81052.903688
1838.097438,4589.276840,5181.441594,-78754.617194
1838.100006,5773.606348,8586.388927,-77528.864398
1838.102574,8438.347739,5477.523971,-76762.768900
1838.105143,5033.400406,148.041188,-78141.740796
1838.107711,3552.988522,7105.977043,-76303.111601
1838.110279,-1036.288319,14656.077652,-80899.684589
1838.112847,5773.606348,-2220.617826,-82278.656485
1838.115415,6069.688724,9326.594869,-76303.111601
1838.117983,-1036.288319,6809.894666,-79827.150892
1838.120551,-3108.864956,-5773.606348,-78601.398095
1838.123119,0.000000,296.082377,-76303.111601
1838.125687,-4737.318029,6809.894666,-77988.521696
1838.128255,0.000000,1480.411884,-82278.656485
1838.130823,-1184.329507,-6217.729913,-80899.684589
1838.133391,444.123565,1480.411884,-77222.426198
1838.135959,-7994.224174,-3256.906145,-78448.178995
1838.138527,-1332.370696,2368.659014,-76762.768900
1838.141095,-6809.894666,-7402.059420,-78907.836294
1838.143663,-3849.070898,2220.617826,-77682.083497
1838.146231,-4145.153275,-592.164754,-80440.027290
1838.148799,-3404.947333,-5477.523971,-80899.684589
1838.151367,-3849.070898,-1924.535449,-78294.959896
1838.153935,-1924.535449,-5477.523971,-78141.740796
1838.156503,-1332.370696,296.082377,-77069.207099
1838.159071,-3404.947333,1036.288319,-79673.931792
1838.161639,-1332.370696,2072.576638,-79980.369991
1838.164207,740.205942,-592.164754,-80899.684589
1838.166776,-1776.494261,-1480.411884,-77988.521696
1838.169349,-3997.112087,-592.164754,-79520.712692
1838.171917,-10066.800811,-12139.377449,-79673.931792
1838.174485,-5181.441594,-5181.441594,-77528.864398
1838.177053,-2368.659014,0.000000,-79520.712692
1838.179621,-1036.288319,-148.041188,-79980.369991
1838.182189,-4589.276840,5033.400406,-78448.178995
1838.184757,-6365.771101,-6513.812290,-79827.150892
1838.187325,-5921.647536,444.123565,-75996.673402
1838.189893,3256.906145,-7846.182985,-80133.589091
1838.192461,888.247130,-1036.288319,-75230.577904
1838.195029,7105.977043,23538.548956,-79367.493593
1838.197598,7846.182985,-6661.853478,-83044.751983
1838.200166,1036.288319,14508.036463,-75996.673402
1838.202734,-7105.977043,-6957.935855,-83044.751983
1838.205302,3701.029710,-1036.288319,-73085.510509
1838.207870,4589.276840,20429.683999,-75383.797003
1838.210438,3701.029710,10510.924376,-81665.780087
1838.213006,4589.276840,-2812.782580,-83197.971083
1838.215574,296.082377,9326.594869,-79214.274493
1838.218142,-3256.906145,-1036.288319,-80746.465489
1838.220710,5921.647536,9326.594869,-74311.263306
1838.223278,6661.853478,9474.636058,-76303.111601
1838.225847,-296.082377,-2960.823768,-79367.493593
1838.228415,1480.411884,-1776.494261,-79673.931792
1838.230983,444.123565,5329.482782,-81359.341888
1838.233551,-2368.659014,8142.265362,-83044.751983
1838.236119,8142.265362,11695.253884,-76456.330700
1838.238687,7698.141797,444.123565,-76609.549800
1838.241255,3108.864956,2220.617826,-75843.454302
1838.243823,3997.112087,4441.235652,-80440.027290
1838.246391,888.247130,3849.070898,-79673.931792
1838.248959,6809.894666,18209.066173,-80286.808190
1838.251527,3552.988522,444.123565,-81206.122788
1838.254096,4441.235652,1776.494261,-76915.987999
1838.256664,-7105.977043,-1480.411884,-78448.178995
1838.259232,-1184.329507,-296.082377,-77069.207099
1838.261800,1184.329507,3552.988522,-77835.302597
1838.264368,-5329.482782,0.000000,-81206.122788
1838.266936,-148.041188,4737.318029,-81359.341888
1838.269504,-3108.864956,-9622.677246,-81206.122788
1838.272071,-2664.741391,1036.288319,-75230.577904
1838.274639,-9326.594869,1480.411884,-78141.740796
1838.277206,296.082377,-7846.182985,-78754.617194
1838.279773,-592.164754,1184.329507,-76303.111601
1838.282341,-6513.812290,-4293.194464,-82431.875585
1838.284908,-2812.782580,740.205942,-79673.931792
1838.287475,-2960.823768,-2220.617826,-81359.341888
1838.290042,0.000000,-5625.565159,-77988.521696
1838.292610,148.041188,1480.411884,-75537.016103
1838.295177,-1480.411884,1184.329507,-78141.740796
1838.297744,-1036.288319,0.000000,-79673.931792
1838.300312,1036.288319,-5181.441594,-81512.560987
1838.302879,-7698.141797,-296.082377,-78601.398095
1838.305446,-7698.141797,-4441.235652,-80133.589091
1838.308014,-4293.194464,-13175.665768,-78754.617194
1838.310581,-3256.906145,3404.947333,-77375.645298
1838.313148,-3256.906145,-3997.112087,-80593.246390
1838.315715,-5477.523971,-1036.288319,-79214.274493
1838.318283,-1628.453072,-888.247130,-79367.493593
1838.320850,-7550.100608,-888.247130,-79214.274493
1838.323417,-1776.494261,-7550.100608,-78907.836294
1838.325985,5033.400406,740.205942,-75383.797003
1838.328552,2960.823768,15988.448347,-80440.027290
1838.331119,9918.759623,1184.329507,-81512.560987
1838.333687,-1036.288319,7846.182985,-77375.645298
1838.336254,-6069.688724,-4885.359217,-80899.684589
1838.338821,148.041188,3404.947333,-74617.701505
1838.341389,2368.659014,13471.748144,-77375.645298
1838.343956,7994.224174,8290.306550,-81052.903688
1838.346523,1776.494261,-2368.659014,-82125.437386
1838.349090,1628.453072,13027.624579,-77988.521696
1838.351658,148.041188,-4145.153275,-83964.066581
1838.354225,5477.523971,6957.935855,-73545.167808
1838.356792,3256.906145,10362.883188,-76149.892501
1838.359360,-740.205942,296.082377,-77682.083497
1838.361927,4145.153275,296.082377,-80440.027290
1838.364494,-1332.370696,3256.906145,-81665.780087
1838.367062,2516.700203,8882.471304,-80899.684589
1838.369629,9622.677246,2368.659014,-78601.398095
1838.372196,8734.430116,7846.182985,-73545.167808
1838.374763,1924.535449,-296.082377,-79214.274493
1838.377330,-888.247130,9918.759623,-77835.302597
1838.379897,5773.606348,2960.823768,-81359.341888
1838.382463,3256.906145,16136.489536,-78141.740796
1838.385030,3701.029710,6069.688724,-82431.875585
1838.387597,2812.782580,-7550.100608,-77528.864398
1838.390164,-3997.112087,1036.288319,-75996.673402
1838.392731,-3701.029710,888.247130,-77835.302597
1838.395297,148.041188,740.205942,-79520.712692
1838.397864,2072.576638,1776.494261,-80593.246390
1838.400431,-2516.700203,2516.700203,-81206.122788
1838.402998,-6809.894666,-10066.800811,-80133.589091
1838.405565,-888.247130,4737.318029,-74770.920605
1838.408131,-9178.553681,-11695.253884,-80746.465489
1838.410698,2220.617826,3849.070898,-74924.139704
1838.413265,-5921.647536,-148.041188,-81359.341888
1838.415832,-2960.823768,-5181.441594,-81206.122788
1838.418399,-2960.823768,-1036.288319,-77988.521696
1838.420965,-5625.565159,1036.288319,-76303.111601
1838.423532,-3256.906145,-1924.535449,-77222.426198
1838.426099,1776.494261,2220.617826,-77375.645298
1838.428666,-1332.370696,2516.700203,-78294.959896
1838.431233,-5921.647536,-3404.947333,-81359.341888
1838.433800,-1184.329507,-740.205942,-78601.398095
1838.436366,-5033.400406,-5033.400406,-79367.493593
1838.438933,-7254.018232,-5181.441594,-77988.521696
1838.441500,-3849.070898,-7402.059420,-78448.178995
1838.444067,-1628.453072,4441.235652,-77222.426198
1838.446634,-6513.812290,-296.082377,-81818.999186
1838.449200,296.082377,-2664.741391,-78907.836294
1838.451767,-5625.565159,-148.041188,-77988.521696
1838.454334,-2664.741391,-4441.235652,-78601.398095
1838.456901,-296.082377,-3552.988522,-75077.358804
1838.459468,7402.059420,24722.878463,-78754.617194
1838.462034,7846.182985,-5625.565159,-85036.600278
1838.464601,2220.617826,5625.565159,-75996.673402
1838.467168,-5625.565159,5033.400406,-78907.836294
1838.469735,2368.659014,-6661.853478,-78141.740796
1838.472302,6661.853478,17320.819043,-73238.729609
1838.474868,5477.523971,1480.411884,-81818.999186
1838.477435,-2664.741391,-1924.535449,-82278.656485
1838.480002,6069.688724,10807.006753,-78601.398095
1838.482568,-296.082377,-1628.453072,-80746.465489
1838.485135,5921.647536,8142.265362,-75230.577904
1838.487701,2072.576638,2960.823768,-76609.549800
1838.490268,1184.329507,-1480.411884,-77988.521696
1838.492834,1332.370696,148.041188,-80746.465489
1838.495401,1184.329507,6513.812290,-80286.808190
1838.497967,2072.576638,14063.912898,-80133.589091
1838.500534,9326.594869,5181.441594,-78907.836294
1838.503100,5181.441594,-1332.370696,-74924.139704
1838.505667,4885.359217,6069.688724,-77375.645298
1838.508233,-6069.688724,444.123565,-79061.055394
1838.510800,4589.276840,18357.107362,-78754.617194
1838.513366,5625.565159,4441.235652,-82585.094684
1838.515933,4145.153275,3997.112087,-78448.178995
1838.518499,-5033.400406,-296.082377,-78448.178995
1838.521066,-296.082377,-5921.647536,-77528.864398
1838.523632,-2220.617826,2664.741391,-75230.577904
1838.526199,-1036.288319,2072.576638,-80286.808190
1838.528765,296.082377,-9326.594869,-80746.465489
1838.531332,-2960.823768,3256.906145,-77682.083497
1838.533898,-4441.235652,-2072.576638,-80133.589091
1838.536465,-4885.359217,-6217.729913,-77222.426198
1838.539031,-296.082377,296.082377,-77528.864398
1838.541598,-5181.441594,-9622.677246,-78601.398095
1838.544164,-2960.823768,3552.988522,-77682.083497
1838.546731,-3552.988522,-1776.494261,-81972.218286
1838.549297,-4145.153275,-8882.471304,-81052.903688
1838.551864,-2072.576638,3701.029710,-76149.892501
1838.554431,-1036.288319,-444.123565,-77069.207099
1838.556997,-592.164754,3108.864956,-77988.521696
1838.559564,-3552.988522,-592.164754,-80593.246390
1838.562130,-2664.741391,-3997.112087,-80133.589091
1838.564696,-4885.359217,-4145.153275,-79367.493593
1838.567263,-8734.430116,-8438.347739,-79673.931792
1838.569829,-6365.771101,-2368.659014,-76609.549800
1838.572396,-2516.700203,-1776.494261,-79673.931792
1838.574962,-2368.659014,1628.453072,-79520.712692
1838.577529,-3552.988522,-9770.718434,-81512.560987
1838.580095,-3256.906145,5625.565159,-76149.892501
1838.582662,-4145.153275,-5329.482782,-78294.959896
1838.585228,2516.700203,2516.700203,-75537.016103
1838.587795,9326.594869,12583.501014,-81206.122788
1838.590361,6365.771101,-5329.482782,-81818.999186
1838.592928,1036.288319,18061.024985,-76456.330700
1838.595494,-6365.771101,-6957.935855,-83044.751983
1838.598061,2960.823768,2812.782580,-74158.044206
1838.600627,1332.370696,14952.160028,-76609.549800
1838.603194,6513.812290,-2368.659014,-78907.836294
1838.605760,6513.812290,12139.377449,-77988.521696
1838.608327,2812.782580,6661.853478,-82278.656485
1838.610893,-3404.947333,5477.523971,-80133.589091
1838.613460,5329.482782,2960.823768,-77069.207099
1838.616026,1776.494261,9918.759623,-72932.291410
1838.618593,-2220.617826,-3997.112087,-79980.369991
1838.621159,3701.029710,3849.070898,-78141.740796
1838.623726,740.205942,3256.906145,-82431.875585
1838.626292,5181.441594,6957.935855,-80593.246390
1838.628858,8290.306550,15840.407159,-76915.987999
1838.631425,6661.853478,-1480.411884,-80133.589091
1838.633991,3404.947333,3701.029710,-74617.701505
1838.636558,4145.153275,3849.070898,-78141.740796
1838.639124,2812.782580,11991.336260,-78294.959896
1838.641691,3701.029710,9474.636058,-83657.628382
1838.644257,5477.523971,-3701.029710,-79827.150892
1838.646824,296.082377,-1332.370696,-77835.302597
1838.649390,-6365.771101,5773.606348,-76915.987999
1838.651957,2516.700203,-5329.482782,-78448.178995
1838.654523,-6365.771101,6217.729913,-77682.083497
1838.657090,-148.041188,-4737.318029,-83351.190182
1838.659656,-148.041188,4145.153275,-78141.740796
1838.662222,444.123565,-1184.329507,-78907.836294
1838.664787,-10955.047942,-4885.359217,-77528.864398
1838.667353,-3997.112087,-1628.453072,-77528.864398
1838.669919,-1332.370696,888.247130,-77835.302597
1838.672484,-1628.453072,-4589.276840,-81512.560987
1838.675050,-2072.576638,296.082377,-80593.246390
1838.677615,-6069.688724,-3108.864956,-80593.246390
1838.680181,-1184.329507,-2516.700203,-77835.302597
1838.682747,296.082377,3256.906145,-76303.111601
1838.685312,-1184.329507,296.082377,-80593.246390
1838.687878,-3404.947333,-3108.864956,-80133.589091
1838.690443,-7254.018232,-2220.617826,-81512.560987
1838.693009,-6069.688724,-7994.224174,-78141.740796
1838.695575,-7550.100608,-6365.771101,-77988.521696
1838.698140,-4293.194464,0.000000,-77682.083497
1838.700706,740.205942,-7402.059420,-80593.246390
1838.703271,-2812.782580,1184.329507,-79214.274493
1838.705837,-1036.288319,-5625.565159,-81359.341888
1838.708403,-7550.100608,4885.359217,-77528.864398
1838.710968,1480.411884,-1776.494261,-80133.589091
1838.713534,8142.265362,-10955.047942,-79673.931792
1838.716099,6365.771101,17764.942608,-75383.797003
1838.718665,5181.441594,4885.359217,-83810.847481
1838.721231,592.164754,-6957.935855,-80440.027290
1838.723796,-1332.370696,14804.118840,-77069.207099
1838.726362,1036.288319,-3701.029710,-79980.369991
1838.728927,9178.553681,13767.830521,-72472.634111
1838.731493,6069.688724,9770.718434,-80286.808190
1838.734059,2516.700203,-6661.853478,-82278.656485
1838.736624,4885.359217,9326.594869,-77988.521696
1838.739190,-3256.906145,5181.441594,-80593.246390
1838.741756,9030.512492,6661.853478,-78141.740796
1838.744321,1184.329507,2220.617826,-77528.864398
1838.746887,-1036.288319,-1184.329507,-78141.740796
1838.749452,-296.082377,1480.411884,-79520.712692
1838.752018,6661.853478,9770.718434,-80133.589091
1838.754584,7846.182985,11843.295072,-78141.740796
1838.757149,5773.606348,4589.276840,-80286.808190
1838.759715,8734.430116,4293.194464,-76303.111601
1838.762280,888.247130,0.000000,-78141.740796
1838.764845,-148.041188,12287.418637,-75537.016103
1838.767410,2812.782580,12583.501014,-81818.999186
1838.769975,5329.482782,-6365.771101,-81359.341888
1838.772541,2072.576638,3849.070898,-76456.330700
1838.775106,-4293.194464,2516.700203,-79214.274493
1838.777671,740.205942,-9918.759623,-78294.959896
1838.780236,-3997.112087,8142.265362,-76915.987999
1838.782801,-1628.453072,-6513.812290,-82125.437386
1838.785366,2368.659014,7846.182985,-77375.645298
1838.787931,-5625.565159,-5033.400406,-82431.875585
1838.790496,-3997.112087,-5773.606348,-76609.549800
1838.793061,-4589.276840,1332.370696,-75537.016103
1838.795626,-2368.659014,-1628.453072,-78907.836294
1838.798191,-2960.823768,-8290.306550,-81206.122788
1838.800756,-4885.359217,7698.141797,-78448.178995
1838.803321,-4145.153275,-6661.853478,-81665.780087
1838.805886,592.164754,1036.288319,-76456.330700
1838.808451,-3256.906145,1924.535449,-75843.454302
1838.811016,-1480.411884,148.041188,-78754.617194
1838.813581,-2072.576638,-3108.864956,-79980.369991
1838.816146,-6217.729913,-3701.029710,-81512.560987
1838.818711,-7846.182985,-2960.823768,-80286.808190
1838.821276,-5181.441594,-6957.935855,-78907.836294
1838.823842,-5181.441594,-592.164754,-75537.016103
1838.826407,-1036.288319,148.041188,-78754.617194
1838.828972,-1036.288319,-10807.006753,-80133.589091
1838.831537,444.123565,3701.029710,-78601.398095
1838.834102,-9918.759623,-6809.894666,-81359.341888
1838.836667,-1184.329507,6365.771101,-75690.235202
1838.839232,7698.141797,1480.411884,-79061.055394
1838.841797,3701.029710,9622.677246,-76762.768900
1838.844362,3997.112087,14359.995275,-79827.150892
1838.846927,-2960.823768,-12731.542202,-84423.723880
1838.849492,3552.988522,296.082377,-75843.454302
1838.852057,296.082377,21465.972318,-78448.178995
1838.854622,4589.276840,1628.453072,-81359.341888
1838.857187,5921.647536,5625.565159,-76149.892501
1838.859752,592.164754,3552.988522,-82278.656485
1838.862317,296.082377,-3256.906145,-80593.246390
1838.864882,4737.318029,14656.077652,-75996.673402
1838.867447,888.247130,3256.906145,-78754.617194
1838.870012,2812.782580,-2960.823768,-78907.836294
1838.872577,1776.494261,3108.864956,-77835.302597
1838.875142,2220.617826,9326.594869,-80286.808190
1838.877707,7550.100608,3849.070898,-79673.931792
1838.880272,8586.388927,9918.759623,-77222.426198
1838.882836,7254.018232,8290.306550,-78601.398095
1838.885401,-296.082377,-3701.029710,-78907.836294
1838.887966,1480.411884,15544.324782,-75383.797003
1838.890531,740.205942,4293.194464,-82125.437386
1838.893096,5033.400406,5625.565159,-79827.150892
1838.895661,2960.823768,3552.988522,-78601.398095
1838.898226,1332.370696,-5181.441594,-79214.274493
1838.900791,-3849.070898,-4441.235652,-76456.330700
1838.903356,-5033.400406,7402.059420,-76762.768900
1838.905920,-1776.494261,-8438.347739,-83197.971083
1838.908485,296.082377,4145.153275,-77375.645298
1838.911050,-3997.112087,740.205942,-80440.027290
1838.913615,-2960.823768,-4145.153275,-77682.083497
1838.916180,-2368.659014,-3552.988522,-78448.178995
1838.918745,-8290.306550,-8438.347739,-77528.864398
1838.921310,-1480.411884,5033.400406,-77069.207099
1838.923875,-4589.276840,-3997.112087,-82585.094684
1838.926439,-888.247130,-2516.700203,-79827.150892
1838.929004,-2220.617826,-3256.906145,-79214.274493
1838.931569,-1036.288319,3552.988522,-75230.577904
1838.934134,-2072.576638,-444.123565,-77835.302597
1838.936699,-1776.494261,-2516.700203,-78294.959896
1838.939264,-8734.430116,-6513.812290,-80440.027290
1838.941829,-7994.224174,-1776.494261,-80286.808190
1838.944394,-5773.606348,-9918.759623,-80440.027290
1838.946958,-2664.741391,1924.535449,-75537.016103
1838.949523,-5329.482782,2220.617826,-78907.836294
1838.952088,-4589.276840,-10955.047942,-81052.903688
1838.954653,-1480.411884,1924.535449,-76149.892501
1838.957218,-2072.576638,-7254.018232,-81052.903688
1838.959783,-740.205942,-296.082377,-77682.083497
1838.962348,10066.800811,22502.260637,-79367.493593
1838.964913,10066.800811,-11991.336260,-82431.875585
1838.967478,3997.112087,19393.395680,-72472.634111
1838.970042,-8734.430116,-6217.729913,-83810.847481
1838.972605,4441.235652,-4441.235652,-75537.016103
1838.975169,3108.864956,22354.219448,-76456.330700
1838.977733,5477.523971,1924.535449,-83197.971083
1838.980297,2960.823768,3849.070898,-76762.768900
1838.982861,-1776.494261,10955.047942,-80440.027290
1838.985425,-148.041188,-9918.759623,-81818.999186
1838.987989,7994.224174,14211.954086,-74617.701505
1838.990553,-1628.453072,5921.647536,-77835.302597
1838.993117,592.164754,-3404.947333,-79673.931792
1838.995681,2220.617826,5477.523971,-78448.178995
1838.998245,740.205942,6365.771101,-81665.780087
1839.000809,8438.347739,4737.318029,-80133.589091
1839.003373,7698.141797,11695.253884,-77069.207099
1839.005937,2664.741391,13767.830521,-75383.797003
1839.008501,0.000000,296.082377,-81665.780087
1839.011065,3997.112087,2072.576638,-75690.235202
1839.013629,2220.617826,12879.583391,-78754.617194
1839.016193,1628.453072,-740.205942,-82738.313784
1839.018757,6513.812290,3701.029710,-77528.864398
1839.021321,-4737.318029,3108.864956,-78754.617194
1839.023885,-3404.947333,-7254.018232,-77835.302597
1839.026449,-8290.306550,5773.606348,-76303.111601
1839.029013,-3108.864956,-7402.059420,-82278.656485
1839.031577,-2960.823768,-9474.636058,-79827.150892
1839.034141,3256.906145,7105.977043,-77988.521696
1839.036705,-10066.800811,-10362.883188,-81206.122788
1839.039269,-3256.906145,-148.041188,-76149.892501
1839.041833,-6069.688724,-1332.370696,-78141.740796
1839.044397,-3552.988522,-5921.647536,-77375.645298
1839.046961,-444.123565,6069.688724,-78907.836294
1839.049525,-3997.112087,-7698.141797,-82585.094684
1839.052089,-2368.659014,740.205942,-79980.369991
1839.054653,-1036.288319,3108.864956,-77069.207099
1839.057217,2072.576638,-740.205942,-76149.892501
1839.059780,-10807.006753,-2812.782580,-77222.426198
1839.062344,-8586.388927,-4145.153275,-79827.150892
1839.064908,-5921.647536,-10807.006753,-79520.712692
1839.067472,-4885.359217,2220.617826,-78601.398095
1839.070036,-888.247130,-1776.494261,-80440.027290
1839.072600,-1332.370696,-6661.853478,-78294.959896
1839.075163,0.000000,4885.359217,-76609.549800
1839.077727,-11103.089130,-9622.677246,-79367.493593
1839.080290,-3404.947333,9326.594869,-77375.645298
1839.082854,9178.553681,7254.018232,-82738.313784
1839.085417,6957.935855,-2368.659014,-79214.274493
1839.087981,2960.823768,24278.754898,-77375.645298
1839.090544,-5181.441594,-17024.736666,-84576.942979
1839.093107,4885.359217,3997.112087,-73851.606007
1839.095671,-1776.494261,12139.377449,-78754.617194
1839.098234,6957.935855,-444.123565,-77528.864398
1839.100798,9030.512492,24426.796086,-76762.768900
1839.103361,888.247130,-10214.842000,-86262.353075
1839.105925,2072.576638,5921.647536,-75843.454302
1839.108488,-1776.494261,18801.230927,-76915.987999
1839.111052,592.164754,-5477.523971,-78294.959896
1839.113615,3701.029710,4885.359217,-75383.797003
1839.116179,-1924.535449,7846.182985,-77835.302597
1839.118742,4293.194464,148.041188,-81052.903688
1839.121306,5477.523971,15840.407159,-79520.712692
1839.123869,13915.871710,5625.565159,-80899.684589
1839.126432,3108.864956,4737.318029,-76915.987999
1839.128996,3108.864956,11695.253884,-76609.549800
1839.131559,-592.164754,-9178.553681,-79061.055394
1839.134123,3404.947333,7994.224174,-76762.768900
1839.136686,-740.205942,10658.965565,-81359.341888
1839.139250,4293.194464,-7402.059420,-81818.999186
1839.141813,-2664.741391,11843.295072,-75996.673402
1839.144377,-6957.935855,-7698.141797,-81206.122788
1839.146940,-4589.276840,-9474.636058,-76456.330700
1839.149504,-4145.153275,7402.059420,-78601.398095
1839.152067,-4737.318029,-8734.430116,-80746.465489
1839.154630,5033.400406,6365.771101,-77988.521696
1839.157194,-8586.388927,-3256.906145,-81512.560987
1839.159757,-7698.141797,-3701.029710,-79367.493593
1839.162321,-4293.194464,592.164754,-77682.083497
1839.164884,-888.247130,-6809.894666,-78448.178995
1839.167448,-2516.700203,740.205942,-77069.207099
1839.170011,-2072.576638,1480.411884,-80593.246390
1839.172575,-740.205942,-148.041188,-80593.246390
1839.175141,-888.247130,-148.041188,-80133.589091
1839.177705,-4589.276840,-888.247130,-77835.302597
1839.180268,-4589.276840,-2072.576638,-77375.645298
1839.182831,-8586.388927,-8290.306550,-79980.369991
1839.185395,-7698.141797,-9918.759623,-78907.836294
1839.187958,-3108.864956,-5181.441594,-79980.369991
1839.190521,-3404.947333,5033.400406,-79214.274493
1839.193085,-148.041188,-1184.329507,-80133.589091
1839.195648,-6661.853478,444.123565,-78448.178995
1839.198211,-1184.329507,-10510.924376,-79673.931792
1839.200774,-3849.070898,-1480.411884,-75077.358804
1839.203338,8882.471304,20133.601622,-79214.274493
1839.205901,13767.830521,-6809.894666,-82891.532884
1839.208464,4293.194464,13027.624579,-76762.768900
1839.211028,-5773.606348,2220.617826,-82585.094684
1839.213591,2812.782580,-6661.853478,-81512.560987
1839.216154,9770.718434,17172.777854,-72319.415011
1839.218717,5477.523971,5181.441594,-81052.903688
1839.221281,2812.782580,0.000000,-78294.959896
1839.223844,5921.647536,11991.336260,-79980.369991
1839.226407,-592.164754,-10658.965565,-83810.847481
1839.228971,2368.659014,17468.860231,-74311.263306
1839.231534,-1776.494261,5625.565159,-80593.246390
1839.234097,5033.400406,-740.205942,-77375.645298
1839.236660,1776.494261,4885.359217,-77222.426198
1839.239224,2516.700203,13175.665768,-78907.836294
1839.241787,9770.718434,444.123565,-82891.532884
1839.244350,4589.276840,15100.201217,-76762.768900
1839.246914,5921.647536,12435.459826,-79367.493593
1839.249477,-296.082377,-5181.441594,-78907.836294
1839.252040,-592.164754,13471.748144,-76609.549800
1839.254603,1480.411884,-4293.194464,-80440.027290
1839.257167,3108.864956,7550.100608,-76456.330700
1839.259730,1776.494261,6661.853478,-80746.465489
1839.262293,-3404.947333,-13027.624579,-80133.589091
1839.264857,-8438.347739,8734.430116,-77528.864398
1839.267420,-4737.318029,6957.935855,-79673.931792
1839.269983,-2664.741391,-10955.047942,-79520.712692
1839.272547,4885.359217,2072.576638,-75383.797003
1839.275110,-10510.924376,-4885.359217,-80899.684589
1839.277672,-7994.224174,-2516.700203,-79367.493593
1839.280235,148.041188,-740.205942,-79980.369991
1839.282797,-4145.153275,-2664.741391,-78601.398095
1839.285359,-3108.864956,1036.288319,-78141.740796
1839.287922,-740.205942,-1480.411884,-79061.055394
1839.290484,2368.659014,-1776.494261,-79673.931792
1839.293046,-3404.947333,-1184.329507,-79673.931792
1839.295609,-4293.194464,1036.288319,-77835.302597
1839.298171,-5477.523971,-9030.512492,-79673.931792
1839.300734,-9622.677246,-3552.988522,-77375.645298
1839.303296,-8290.306550,-4589.276840,-80286.808190
1839.305858,-888.247130,-7105.977043,-80440.027290
1839.308421,-2072.576638,-4145.153275,-77375.645298
1839.310983,3256.906145,3997.112087,-77528.864398
1839.313545,-12879.583391,-3552.988522,-80286.808190
1839.316108,-2516.700203,-2664.741391,-78754.617194
1839.318670,296.082377,-4441.235652,-80593.246390
1839.321233,6957.935855,17172.777854,-76149.892501
1839.323795,4737.318029,12583.501014,-81972.218286
1839.326357,1924.535449,-13767.830521,-80440.027290
1839.328920,-1332.370696,11843.295072,-73698.386908
1839.331482,888.247130,-3256.906145,-80899.684589
1839.334044,6809.894666,12139.377449,-74004.825107
1839.336607,7550.100608,12583.501014,-80440.027290
1839.339169,-1184.329507,-3256.906145,-81206.122788
1839.341732,7105.977043,13915.871710,-78448.178995
1839.344294,-6069.688724,-6365.771101,-81972.218286
1839.346856,3701.029710,5033.400406,-76456.330700
1839.349419,2220.617826,3997.112087,-77528.864398
1839.351981,2516.700203,296.082377,-79061.055394
1839.354544,1628.453072,8290.306550,-79673.931792
1839.357106,4885.359217,8882.471304,-82585.094684
1839.359668,12731.542202,10214.842000,-78601.398095
1839.362231,4441.235652,4293.194464,-77375.645298
1839.364793,2960.823768,13915.871710,-74311.263306
1839.367355,2812.782580,-3404.947333,-81052.903688
1839.369918,148.041188,1776.494261,-76915.987999
1839.372480,-1628.453072,9918.759623,-78754.617194
1839.375043,3108.864956,9178.553681,-81665.780087
1839.377605,-1184.329507,-7550.100608,-79980.369991
1839.380167,-4737.318029,148.041188,-76915.987999
1839.382729,-10362.883188,-14656.077652,-78141.740796
1839.385291,296.082377,10362.883188,-74311.263306
1839.387853,-4589.276840,-4293.194464,-83197.971083
1839.390415,2072.576638,-444.123565,-78294.959896
1839.392976,-5921.647536,2220.617826,-80593.246390
1839.395538,-6957.935855,-8734.430116,-80899.684589
1839.398100,-4589.276840,-1036.288319,-77069.207099
1839.400662,-1184.329507,-444.123565,-77682.083497
1839.403224,-1036.288319,-1776.494261,-78141.740796
1839.405786,-1480.411884,-148.041188,-80746.465489
1839.408348,-1480.411884,1776.494261,-81052.903688
1839.410910,0.000000,-3997.112087,-80899.684589
1839.413472,-6069.688724,-444.123565,-77069.207099
1839.416034,-8438.347739,-5181.441594,-77375.645298
1839.418596,-10807.006753,-9326.594869,-77988.521696
1839.421158,-4145.153275,-6809.894666,-80133.589091
1839.423720,-1776.494261,-1036.288319,-80440.027290
1839.426282,0.000000,5625.565159,-80286.808190
1839.428844,-7402.059420,-148.041188,-80440.027290
1839.431405,-888.247130,-10658.965565,-77375.645298
1839.433967,-4293.194464,-2220.617826,-74464.482406
1839.436529,5181.441594,22354.219448,-78141.740796
1839.439091,10362.883188,-5773.606348,-84117.285680
1839.441653,7402.059420,13175.665768,-76915.987999
1839.444215,-4441.235652,592.164754,-83964.066581
1839.446777,2664.741391,-3997.112087,-78448.178995
1839.449339,3256.906145,15100.201217,-75230.577904
1839.451901,7254.018232,3849.070898,-79980.369991
1839.454463,4441.235652,3404.947333,-76915.987999
1839.457025,4441.235652,13471.748144,-80593.246390
1839.459587,-1628.453072,-5625.565159,-83964.066581
1839.462149,2812.782580,10362.883188,-76456.330700
1839.464711,148.041188,1776.494261,-77222.426198
1839.467272,1480.411884,296.082377,-77222.426198
1839.469834,296.082377,10807.006753,-77835.302597
1839.472396,5921.647536,3849.070898,-81052.903688
1839.474958,10510.924376,10214.842000,-79061.055394
1839.477520,7105.977043,8290.306550,-79367.493593
1839.480082,1184.329507,10362.883188,-76609.549800
1839.482644,296.082377,2960.823768,-79827.150892
1839.485206,148.041188,-1924.535449,-78141.740796
1839.487767,148.041188,7105.977043,-77528.864398
1839.490329,4589.276840,6957.935855,-81665.780087
1839.492891,-444.123565,-3997.112087,-79520.712692
1839.495452,-3256.906145,2368.659014,-77682.083497
1839.498014,-10510.924376,-12731.542202,-79367.493593
1839.500576,-2664.741391,4737.318029,-76456.330700
1839.503137,-1036.288319,2960.823768,-79367.493593
1839.505699,-1184.329507,-4441.235652,-79520.712692
1839.508261,-2516.700203,740.205942,-77988.521696
1839.510823,-8586.388927,-6661.853478,-80440.027290
1839.513384,-6513.812290,-2072.576638,-77682.083497
1839.515946,1036.288319,-5625.565159,-78907.836294
1839.518508,-2960.823768,740.205942,-76762.768900
1839.521069,-740.205942,-888.247130,-79520.712692
1839.523631,-1036.288319,2516.700203,-79827.150892
1839.526193,-2664.741391,-1924.535449,-79367.493593
1839.528754,-5477.523971,-4589.276840,-79061.055394
1839.531316,-7254.018232,-8586.388927,-77988.521696
1839.533878,-7402.059420,-6809.894666,-78141.740796
1839.536440,-2368.659014,-2516.700203,-80746.465489
1839.539001,-4885.359217,-4441.235652,-79673.931792
1839.541563,3404.947333,4293.194464,-78448.178995
1839.544125,-10510.924376,-1924.535449,-78601.398095
1839.546686,-2664.741391,-1924.535449,-77988.521696
1839.549248,2960.823768,-5477.523971,-77682.083497
1839.551810,5477.523971,17172.777854,-76915.987999
1839.554372,9030.512492,8142.265362,-82738.313784
1839.556933,1036.288319,-4293.194464,-81512.560987
1839.559495,1480.411884,6513.812290,-77375.645298
1839.562057,-148.041188,-2072.576638,-78448.178995
1839.564618,3701.029710,12435.459826,-73238.729609
1839.567180,8586.388927,10362.883188,-80286.808190
1839.569742,2812.782580,-2664.741391,-81206.122788
1839.572303,3552.988522,9326.594869,-79980.369991
1839.574865,-4293.194464,2664.741391,-81359.341888
1839.577427,4293.194464,5773.606348,-77222.426198
1839.579989,296.082377,-148.041188,-77222.426198
1839.582550,148.041188,2812.782580,-77375.645298
1839.585111,5329.482782,8142.265362,-78754.617194
1839.587672,11843.295072,7994.224174,-82125.437386
1839.590232,7105.977043,9770.718434,-80286.808190
1839.592793,2664.741391,16432.571912,-78907.836294
1839.595354,3108.864956,-4441.235652,-76762.768900
1839.597914,1628.453072,9178.553681,-75077.358804
1839.600475,-4589.276840,-5033.400406,-81818.999186
1839.603036,8734.430116,5921.647536,-76456.330700
1839.605596,-740.205942,16728.654289,-82278.656485
1839.608157,-2516.700203,-2516.700203,-83197.971083
1839.610718,-10066.800811,-17764.942608,-76149.892501
1839.613279,-6217.729913,10510.924376,-73391.948708
1839.615839,-6957.935855,-9178.553681,-80440.027290
1839.618400,7254.018232,1332.370696,-77375.645298
1839.620961,-7698.141797,3404.947333,-80133.589091
1839.623521,-6365.771101,-6365.771101,-83810.847481
1839.626082,-3256.906145,-1628.453072,-77528.864398
1839.628643,-6365.771101,-3849.070898,-77988.521696
1839.631203,-3849.070898,-3997.112087,-76609.549800
1839.633764,-296.082377,1924.535449,-77528.864398
1839.636325,0.000000,1628.453072,-79673.931792
1839.638885,-4293.194464,-5329.482782,-82891.532884
1839.641446,-7698.141797,-592.164754,-78754.617194
1839.644007,-5181.441594,-6957.935855,-77988.521696
1839.646568,-10510.924376,-8438.347739,-76609.549800
1839.649128,-2812.782580,-1776.494261,-78294.959896
1839.651689,-2516.700203,-13323.706956,-82125.437386
1839.654250,592.164754,4293.194464,-78448.178995
1839.656810,-6365.771101,5181.441594,-81052.903688
1839.659371,-1628.453072,-7846.182985,-80133.589091
1839.661932,6513.812290,-13619.789333,-78294.959896
1839.664492,4885.359217,18801.230927,-74158.044206
1839.667053,4145.153275,6365.771101,-82891.532884
1839.669614,7254.018232,888.247130,-79980.369991
1839.672174,0.000000,3997.112087,-81206.122788
1839.674735,-2368.659014,-1332.370696,-78294.959896
1839.677296,2960.823768,16580.613101,-74617.701505
1839.679857,7550.100608,2516.700203,-79827.150892
1839.682417,5033.400406,2812.782580,-77682.083497
1839.684978,1776.494261,10658.965565,-80440.027290
1839.687538,-3404.947333,3108.864956,-82125.437386
1839.690098,1184.329507,0.000000,-78294.959896
1839.692658,1628.453072,5033.400406,-75383.797003
1839.695219,592.164754,4885.359217,-78601.398095
1839.697779,6513.812290,2368.659014,-79673.931792
1839.700339,10510.924376,14359.995275,-79980.369991
1839.702899,7402.059420,6809.894666,-80899.684589
1839.705459,4885.359217,11399.171507,-77528.864398
1839.708019,148.041188,4589.276840,-77069.207099
1839.710579,1036.288319,3701.029710,-76149.892501
1839.713140,-1776.494261,4145.153275,-79980.369991
1839.715700,7105.977043,5033.400406,-80593.246390
1839.718260,-2368.659014,2220.617826,-79673.931792
1839.720820,-4145.153275,444.123565,-79827.150892
1839.723380,-3108.864956,-13767.830521,-77222.426198
1839.725940,-3849.070898,3108.864956,-74464.482406
1839.728501,-9622.677246,3701.029710,-78294.959896
1839.731061,1184.329507,-5477.523971,-79827.150892
1839.733621,-888.247130,1628.453072,-79061.055394
1839.736181,-7846.182985,-4441.235652,-82431.875585
1839.738741,-4737.318029,-5329.482782,-77528.864398
1839.741301,-2072.576638,-1480.411884,-76456.330700
1839.743861,-2960.823768,-1036.288319,-77682.083497
1839.746422,-888.247130,2220.617826,-79214.274493
1839.748982,-1332.370696,-888.247130,-80746.465489
1839.751542,-3701.029710,-4293.194464,-81512.560987
1839.754102,-7105.977043,-7254.018232,-79367.493593
1839.756662,-6365.771101,0.000000,-74924.139704
1839.759222,-9030.512492,-16580.613101,-80440.027290
1839.761783,-4737.318029,-4441.235652,-76762.768900
1839.764343,-4441.235652,2960.823768,-81052.903688
1839.766903,-148.041188,-148.041188,-82431.875585
1839.769463,-1628.453072,-12139.377449,-80899.684589
1839.772023,-1924.535449,-1184.329507,-73238.729609
1839.774583,2812.782580,8438.347739,-78907.836294
1839.777142,12287.418637,1480.411884,-79520.712692
1839.779702,4737.318029,16136.489536,-77835.302597
1839.782262,-4145.153275,-6069.688724,-84576.942979
1839.784822,4885.359217,6661.853478,-77069.207099
1839.787382,4737.318029,10066.800811,-79367.493593
1839.789942,4885.359217,-5033.400406,-77222.426198
1839.792502,5773.606348,18209.066173,-73545.167808
1839.795062,1628.453072,6217.729913,-81052.903688
1839.797621,444.123565,-888.247130,-82431.875585
1839.800181,2664.741391,10658.965565,-78294.959896
1839.802741,-2072.576638,2516.700203,-78907.836294
1839.805301,3552.988522,2072.576638,-75690.235202
1839.807861,3552.988522,6957.935855,-77375.645298
1839.810421,10658.965565,5773.606348,-79214.274493
1839.812981,7105.977043,9326.594869,-79827.150892
1839.815541,3849.070898,16432.571912,-79673.931792
1839.818101,3701.029710,1924.535449,-79827.150892
1839.820660,1036.288319,2220.617826,-75537.016103
1839.823220,-2664.741391,8142.265362,-76762.768900
1839.825780,1776.494261,-6513.812290,-81052.903688
1839.828340,888.247130,13471.748144,-76456.330700
1839.830900,-1776.494261,-2812.782580,-83504.409282
1839.833460,-6957.935855,-8290.306550,-78294.959896
1839.836020,-4737.318029,6957.935855,-77222.426198
1839.838580,-4441.235652,-9326.594869,-78448.178995
1839.841139,-444.123565,1184.329507,-76609.549800
1839.843699,-6661.853478,740.205942,-80899.684589
1839.846259,-2072.576638,-10214.842000,-82431.875585
1839.848819,-3404.947333,-2072.576638,-77375.645298
1839.851379,-5921.647536,4737.318029,-78294.959896
1839.853939,-3997.112087,-7698.141797,-78754.617194
1839.856499,1184.329507,3701.029710,-76609.549800
1839.859059,-3256.906145,888.247130,-79673.931792
1839.861619,-2516.700203,-6069.688724,-81665.780087
1839.864178,-8290.306550,-2368.659014,-79980.369991
1839.866738,-9030.512492,-7994.224174,-79367.493593
1839.869298,-4737.318029,-9178.553681,-77222.426198
1839.871857,-5181.441594,-2220.617826,-76456.330700
1839.874416,-3552.988522,-2368.659014,-82125.437386
1839.876975,-4293.194464,592.164754,-80133.589091
1839.879535,296.082377,-7105.977043,-80133.589091
1839.882094,-5625.565159,444.123565,-75537.016103
1839.884653,5921.647536,7402.059420,-78907.836294
1839.887212,10066.800811,-1776.494261,-77528.864398
1839.889771,444.123565,17764.942608,-78448.178995
1839.892330,-1924.535449,-7105.977043,-85343.038477
1839.894889,5033.400406,2368.659014,-78294.959896
1839.897448,2664.741391,10658.965565,-79214.274493
1839.900007,3108.864956,-4441.235652,-79214.274493
1839.902567,7846.182985,13619.789333,-73391.948708
1839.905126,1184.329507,0.000000,-83044.751983
1839.907685,1924.535449,-2368.659014,-81818.999186
1839.910244,0.000000,10214.842000,-78754.617194
1839.912803,0.000000,4145.153275,-78601.398095
1839.915362,4293.194464,2960.823768,-77375.645298
1839.917921,1924.535449,7846.182985,-76456.330700
1839.920480,9770.718434,8142.265362,-78294.959896
1839.923039,10362.883188,5477.523971,-81665.780087
1839.925599,6957.935855,15100.201217,-77682.083497
1839.928158,740.205942,8734.430116,-80133.589091
1839.930717,-1332.370696,148.041188,-76609.549800
1839.933276,1776.494261,6809.894666,-75996.673402
1839.935835,4589.276840,444.123565,-80133.589091
1839.938394,-1332.370696,4737.318029,-78448.178995
1839.940953,-2960.823768,296.082377,-82278.656485
1839.943512,-7254.018232,-13323.706956,-79980.369991
1839.946071,-2368.659014,10658.965565,-76456.330700
1839.948631,-6365.771101,-8438.347739,-79214.274493
1839.951190,148.041188,-1776.494261,-75690.235202
1839.953749,-4441.235652,2664.741391,-78141.740796
1839.956308,-6957.935855,-4293.194464,-82585.094684
1839.958867,-3701.029710,-4737.318029,-79827.150892
1839.961426,-3404.947333,-1184.329507,-78448.178995
1839.963985,-4293.194464,-444.123565,-77375.645298
1839.966544,-592.164754,1184.329507,-77375.645298
1839.969103,-2812.782580,148.041188,-79367.493593
1839.971663,-6365.771101,-2368.659014,-81512.560987
1839.974221,-5477.523971,-7254.018232,-80440.027290
1839.976780,-6661.853478,-12435.459826,-77835.302597
1839.979339,-6513.812290,1480.411884,-77222.426198
1839.981898,-5033.400406,-10955.047942,-81818.999186
1839.984457,1628.453072,-1924.535449,-77069.207099
1839.987015,-8290.306550,4293.194464,-80746.465489
1839.989574,-3701.029710,-5033.400406,-80286.808190
1839.992133,6661.853478,-7698.141797,-76915.987999
1839.994692,4737.318029,18653.189738,-75690.235202
1839.997251,9326.594869,1036.288319,-82738.313784
1839.999810,6217.729913,3997.112087,-77222.426198
1840.002368,-3256.906145,3108.864956,-83657.628382
1840.004927,-1480.411884,-3108.864956,-82278.656485
1840.007486,9326.594869,11103.089130,-74924.139704
1840.010045,7994.224174,11103.089130,-77528.864398
1840.012604,740.205942,-2368.659014,-79980.369991
1840.015163,4293.194464,4885.359217,-79214.274493
1840.017721,296.082377,592.164754,-81512.560987
1840.020280,-444.123565,5921.647536,-80133.589091
1840.022839,2516.700203,7994.224174,-76762.768900
1840.025398,1628.453072,2960.823768,-77375.645298
1840.027957,9030.512492,5033.400406,-78294.959896
1840.030515,9178.553681,6513.812290,-79520.712692
1840.033074,4441.235652,14804.118840,-78907.836294
1840.035633,740.205942,10807.006753,-80286.808190
1840.038192,592.164754,3701.029710,-76762.768900
1840.040751,3701.029710,3552.988522,-77528.864398
1840.043310,-740.205942,-1332.370696,-79367.493593
1840.045868,3552.988522,9474.636058,-77835.302597
1840.048427,-888.247130,-6365.771101,-81818.999186
1840.050986,-5773.606348,2220.617826,-78141.740796
1840.053545,-5921.647536,-1776.494261,-80440.027290
1840.056104,-3256.906145,-8586.388927,-79061.055394
1840.058663,-592.164754,1480.411884,-74464.482406
1840.061221,-7994.224174,2368.659014,-80440.027290
1840.063780,-1184.329507,-9622.677246,-81206.122788
1840.066339,-5477.523971,592.164754,-77988.521696
1840.068898,-4589.276840,-2220.617826,-79980.369991
1840.071457,296.082377,444.123565,-77528.864398
1840.074015,296.082377,3849.070898,-76915.987999
1840.076574,-2664.741391,-1628.453072,-79061.055394
1840.079133,-4441.235652,-4885.359217,-78907.836294
1840.081692,-6661.853478,1332.370696,-77988.521696
1840.084251,-8882.471304,-11251.130318,-81206.122788
1840.086809,-5181.441594,-2960.823768,-77682.083497
1840.089368,-3256.906145,-6513.812290,-79214.274493
1840.091927,1184.329507,-3997.112087,-79214.274493
1840.094486,-9030.512492,1924.535449,-79980.369991
1840.097044,-1628.453072,-5181.441594,-81818.999186
1840.099603,148.041188,-7994.224174,-76149.892501
1840.102162,7550.100608,25611.125593,-76303.111601
1840.104721,5033.400406,-6069.688724,-82738.313784
1840.107279,3701.029710,-5921.647536,-78754.617194
1840.109838,2812.782580,7254.018232,-77528.864398
1840.112397,148.041188,740.205942,-80899.684589
1840.114956,7698.141797,9474.636058,-76303.111601
1840.117515,7402.059420,13619.789333,-77682.083497
1840.120073,1332.370696,-7402.059420,-81206.122788
1840.122632,3552.988522,7105.977043,-77069.207099
1840.125191,-740.205942,2516.700203,-81818.999186
1840.127750,444.123565,2220.617826,-80133.589091
1840.130308,3256.906145,5773.606348,-77375.645298
1840.132867,5181.441594,4589.276840,-77375.645298
1840.135426,9178.553681,9770.718434,-77528.864398
1840.137985,8882.471304,8586.388927,-81665.780087
1840.140543,4145.153275,8290.306550,-79214.274493
1840.143102,2664.741391,9622.677246,-77682.083497
1840.145661,-888.247130,4589.276840,-78754.617194
1840.148220,1480.411884,-296.082377,-78141.740796
1840.150778,6217.729913,5181.441594,-78601.398095
1840.153337,-4885.359217,2072.576638,-77988.521696
1840.155896,-1776.494261,5033.400406,-79980.369991
1840.158455,-2072.576638,-14359.995275,-80286.808190
1840.161014,-3552.988522,-1480.411884,-75996.673402
1840.163572,-7105.977043,9474.636058,-78141.740796
1840.166131,-1184.329507,-9622.677246,-79061.055394
1840.168690,-3256.906145,3701.029710,-76456.330700
1840.171249,-6365.771101,-1332.370696,-82738.313784
1840.173807,-5329.482782,-9030.512492,-79980.369991
1840.176366,-2072.576638,4441.235652,-76762.768900
1840.178930,-2960.823768,-1480.411884,-79214.274493
1840.181488,2368.659014,592.164754,-77835.302597
1840.184046,-5329.482782,1480.411884,-79061.055394
1840.186604,-6365.771101,-7402.059420,-80286.808190
1840.189162,-9622.677246,-10807.006753,-79367.493593
1840.191720,-6365.771101,1332.370696,-77835.302597
1840.194278,-7698.141797,-10658.965565,-81206.122788
1840.196836,-888.247130,-3701.029710,-78601.398095
1840.199394,-5033.400406,5773.606348,-78754.617194
1840.201952,-4293.194464,-13027.624579,-82278.656485
1840.204510,-3552.988522,4885.359217,-75077.358804
1840.207068,6069.688724,7402.059420,-81206.122788
1840.209626,8734.430116,-2368.659014,-77222.426198
1840.212184,2072.576638,22354.219448,-76149.892501
1840.214742,-5625.565159,296.082377,-83351.190182
1840.217300,3256.906145,-10658.965565,-80133.589091
1840.219858,5921.647536,21910.095883,-75077.358804
1840.222417,0.000000,-888.247130,-81512.560987
1840.224975,8586.388927,11399.171507,-75230.577904
1840.227533,2664.741391,-148.041188,-80899.684589
1840.230091,-1184.329507,-2516.700203,-80593.246390
1840.232649,-1184.329507,6217.729913,-77528.864398
1840.235207,2220.617826,1036.288319,-80440.027290
1840.237765,3701.029710,5181.441594,-76762.768900
1840.240323,7105.977043,14804.118840,-78141.740796
1840.242881,10362.883188,3701.029710,-81052.903688
1840.245439,6957.935855,6513.812290,-78448.178995
1840.247997,2220.617826,14804.118840,-77528.864398
1840.250555,-1332.370696,4737.318029,-77988.521696
1840.253113,2516.700203,-2072.576638,-80133.589091
1840.255671,5773.606348,-1184.329507,-77222.426198
1840.258229,-2516.700203,14359.995275,-78754.617194
1840.260787,1776.494261,-5477.523971,-83044.751983
1840.263345,-5477.523971,-7105.977043,-76149.892501
1840.265903,-3849.070898,8142.265362,-75077.358804
1840.268461,-6957.935855,0.000000,-80286.808190
1840.271019,1036.288319,-6365.771101,-77988.521696
1840.273577,-4293.194464,6809.894666,-77682.083497
1840.276135,-7105.977043,-7698.141797,-82738.313784
1840.278693,-1332.370696,3404.947333,-76915.987999
1840.281251,-1480.411884,-4145.153275,-80440.027290
1840.283809,-2368.659014,3701.029710,-75383.797003
1840.286366,148.041188,2516.700203,-78141.740796
1840.288924,-2664.741391,-2516.700203,-79980.369991
1840.291482,-6217.729913,-4885.359217,-81206.122788
1840.294040,-11103.089130,-3256.906145,-79367.493593
1840.296598,-6217.729913,-6365.771101,-79673.931792
1840.299155,-8290.306550,-6661.853478,-78907.836294
1840.301713,-1924.535449,-2664.741391,-77988.521696
1840.304271,-5921.647536,-148.041188,-78448.178995
1840.306829,-2516.700203,-5773.606348,-80440.027290
1840.309387,-6661.853478,3997.112087,-77988.521696
1840.311945,5329.482782,-1776.494261,-81665.780087
1840.314502,8290.306550,6513.812290,-75077.358804
1840.317060,2072.576638,20429.683999,-79214.274493
1840.319618,-5773.606348,-5625.565159,-83197.971083
1840.322176,3997.112087,-7402.059420,-79214.274493
1840.324734,6217.729913,13471.748144,-77375.645298
1840.327291,3256.906145,1480.411884,-79520.712692
1840.329849,8734.430116,16284.530724,-75537.016103
1840.332407,1184.329507,-2812.782580,-82278.656485
1840.334965,-740.205942,740.205942,-79061.055394
1840.337523,2220.617826,3108.864956,-77528.864398
1840.340081,740.205942,3849.070898,-78907.836294
1840.342638,3404.947333,6513.812290,-78907.836294
1840.345196,7846.182985,7254.018232,-80746.465489
1840.347754,12879.583391,5773.606348,-79061.055394
1840.350312,3256.906145,8882.471304,-78294.959896
1840.352870,6069.688724,17024.736666,-78141.740796
1840.355427,-2812.782580,-5625.565159,-78294.959896
1840.357985,3552.988522,11399.171507,-75077.358804
1840.360543,1480.411884,-2220.617826,-81052.903688
1840.363101,3256.906145,4589.276840,-78601.398095
1840.365659,-4441.235652,-1036.288319,-80593.246390
1840.368217,-6069.688724,-5033.400406,-78907.836294
1840.370774,-2960.823768,10066.800811,-74464.482406
1840.373332,-8142.265362,-3997.112087,-80899.684589
1840.375890,296.082377,-6809.894666,-76149.892501
1840.378448,-3849.070898,8438.347739,-77988.521696
1840.381006,-6069.688724,-8882.471304,-84270.504780
1840.383564,-1924.535449,0.000000,-76762.768900
1840.386121,-3404.947333,1776.494261,-79980.369991
1840.388679,-1332.370696,1480.411884,-77528.864398
1840.391237,1332.370696,1628.453072,-77375.645298
1840.393795,-4293.194464,-2664.741391,-78141.740796
1840.396353,-8142.265362,-5181.441594,-80286.808190
1840.398911,-7402.059420,-8142.265362,-79980.369991
1840.401469,-6513.812290,1628.453072,-77682.083497
1840.404027,-5477.523971,-14063.912898,-82278.656485
1840.406585,-740.205942,2516.700203,-75537.016103
1840.409143,-7105.977043,740.205942,-80746.465489
1840.411700,-2812.782580,-8290.306550,-78907.836294
1840.414258,-2516.700203,-2960.823768,-77528.864398
1840.416816,4441.235652,18061.024985,-78601.398095
1840.419374,8734.430116,-4145.153275,-81665.780087
1840.421932,7402.059420,14656.077652,-74924.139704
1840.424490,-1776.494261,1628.453072,-81206.122788
1840.427048,-444.123565,-5329.482782,-79673.931792
1840.429606,7402.059420,14359.995275,-75996.673402
1840.432164,3849.070898,2516.700203,-79827.150892
1840.434721,3997.112087,7698.141797,-77375.645298
1840.437279,2220.617826,592.164754,-81206.122788
1840.439837,-740.205942,-296.082377,-80440.027290
1840.442395,-1036.288319,1036.288319,-79367.493593
1840.444953,2516.700203,5625.565159,-76303.111601
1840.447511,5477.523971,7550.100608,-78294.959896
1840.450069,10362.883188,3997.112087,-80286.808190
1840.452627,6513.812290,6809.894666,-79673.931792
1840.455185,7105.977043,10807.006753,-79061.055394
1840.457742,1036.288319,6661.853478,-78294.959896
1840.460300,3552.988522,1184.329507,-77222.426198
1840.462858,1924.535449,148.041188,-76915.987999
1840.465416,3108.864956,11695.253884,-79520.712692
1840.467974,-1776.494261,-9918.759623,-81818.999186
1840.470532,-3404.947333,4589.276840,-76762.768900
1840.473090,-4441.235652,-6809.894666,-81818.999186
1840.475648,-3256.906145,-4441.235652,-78141.740796
1840.478206,-3256.906145,3701.029710,-76456.330700
1840.480763,-3552.988522,-1776.494261,-78907.836294
1840.483321,-2960.823768,-6069.688724,-79520.712692
1840.485879,-2516.700203,5921.647536,-77835.302597
1840.488436,-10362.883188,-6069.688724,-81665.780087
1840.490994,888.247130,6365.771101,-76456.330700
1840.493551,1628.453072,1924.535449,-78754.617194
1840.496108,-1480.411884,-5773.606348,-78448.178995
1840.498666,-5773.606348,1776.494261,-78294.959896
1840.501223,-11695.253884,-3404.947333,-79980.369991
1840.503781,-5921.647536,-6217.729913,-78448.178995
1840.506338,-3701.029710,-3552.988522,-78907.836294
1840.508895,-2516.700203,-740.205942,-78907.836294
1840.511453,-3997.112087,-4737.318029,-80286.808190
1840.514010,1480.411884,-888.247130,-77528.864398
1840.516568,-9918.759623,-3552.988522,-77988.521696
1840.519125,6513.812290,12879.583391,-79214.274493
1840.521682,8882.471304,148.041188,-78754.617194
1840.524240,6661.853478,9474.636058,-76149.892501
1840.526797,-6069.688724,2812.782580,-82278.656485
1840.529355,-2516.700203,-7402.059420,-81359.341888
1840.531912,10510.924376,13027.624579,-74158.044206
1840.534469,2368.659014,5773.606348,-80133.589091
1840.537027,1776.494261,4737.318029,-77682.083497
1840.539584,1776.494261,592.164754,-79980.369991
1840.542142,-1480.411884,-1776.494261,-80746.465489
1840.544699,0.000000,2812.782580,-79214.274493
1840.547256,2664.741391,5033.400406,-77375.645298
1840.549814,6513.812290,6069.688724,-77835.302597
1840.552371,9474.636058,7254.018232,-78601.398095
1840.554929,6069.688724,8586.388927,-79214.274493
1840.557486,3552.988522,8142.265362,-80133.589091
1840.560043,148.041188,3701.029710,-78601.398095
1840.562601,1332.370696,4885.359217,-76303.111601
1840.565158,3701.029710,-1036.288319,-78907.836294
1840.567716,2812.782580,8882.471304,-79214.274493
1840.570273,-2368.659014,-10214.842000,-81206.122788
1840.572830,-10362.883188,5033.400406,-75996.673402
1840.575388,-5921.647536,1184.329507,-80440.027290
1840.577945,-592.164754,-9770.718434,-77528.864398
1840.580503,-1924.535449,5477.523971,-74924.139704
1840.583060,-6661.853478,5477.523971,-78601.398095
1840.585617,-3404.947333,-8586.388927,-81359.341888
1840.588175,-1332.370696,4441.235652,-77222.426198
1840.590732,-7254.018232,-3256.906145,-80593.246390
1840.593290,1184.329507,5625.565159,-75843.454302
1840.595847,296.082377,1924.535449,-78141.740796
1840.598404,-3108.864956,-6957.935855,-80440.027290
1840.600962,-8586.388927,-3997.112087,-79061.055394
1840.603519,-7846.182985,-4885.359217,-78141.740796
1840.606077,-8734.430116,-1776.494261,-78448.178995
1840.608634,-4589.276840,-6217.729913,-80440.027290
1840.611191,3552.988522,-2220.617826,-78448.178995
1840.613749,-6809.894666,-2072.576638,-79367.493593
1840.616306,-3849.070898,1628.453072,-78907.836294
1840.618864,1332.370696,-10214.842000,-79520.712692
1840.621421,6365.771101,23390.507767,-75077.358804
1840.623978,5477.523971,2220.617826,-82585.094684
1840.626536,6069.688724,5033.400406,-76149.892501
1840.629093,-3404.947333,4885.359217,-81818.999186
1840.631650,148.041188,-11399.171507,-81665.780087
1840.634208,11399.171507,11547.212695,-75077.358804
1840.636765,3552.988522,9178.553681,-79520.712692
1840.639323,-1184.329507,1776.494261,-79980.369991
1840.641880,3849.070898,888.247130,-80593.246390
1840.644437,-1184.329507,-1332.370696,-79827.150892
1840.646995,444.123565,2960.823768,-77682.083497
1840.649552,2960.823768,9622.677246,-76915.987999
1840.652110,7550.100608,4589.276840,-79673.931792
1840.654667,10362.883188,4885.359217,-80440.027290
1840.657224,7698.141797,7550.100608,-78601.398095
1840.659782,2220.617826,16136.489536,-76149.892501
1840.662339,-444.123565,-3552.988522,-78754.617194
1840.664897,2516.700203,7698.141797,-74617.701505
1840.667454,3849.070898,-296.082377,-81512.560987
1840.670011,740.205942,-592.164754,-80286.808190
1840.672569,-3256.906145,0.000000,-81665.780087
1840.675126,-7105.977043,-15692.365970,-79673.931792
1840.677683,-6069.688724,12731.542202,-73545.167808
1840.680241,-4589.276840,-444.123565,-81052.903688
1840.682798,-148.041188,-11547.212695,-76762.768900
1840.685356,-3701.029710,8290.306550,-76762.768900
1840.687913,-7402.059420,-296.082377,-82431.875585
1840.690470,-888.247130,-2220.617826,-78907.836294
1840.693027,0.000000,2960.823768,-77682.083497
1840.695584,-2220.617826,5625.565159,-76762.768900
1840.698141,-1628.453072,-296.082377,-77222.426198
1840.700699,-2072.576638,-5033.400406,-79061.055394
1840.703256,-10807.006753,-6513.812290,-79827.150892
1840.705813,-10362.883188,-2368.659014,-79367.493593
1840.708370,-5773.606348,-1628.453072,-78754.617194
1840.710927,444.123565,-4589.276840,-79673.931792
1840.713484,-4885.359217,2516.700203,-79673.931792
1840.716041,-2664.741391,-9770.718434,-78601.398095
1840.718598,-4885.359217,-1332.370696,-74924.139704
1840.721155,5033.400406,17172.777854,-79673.931792
1840.723712,9178.553681,0.000000,-80133.589091
1840.726270,7105.977043,15100.201217,-78448.178995
1840.728827,-5625.565159,-7402.059420,-83351.190182
1840.731384,1332.370696,-3256.906145,-77988.521696
1840.733941,3701.029710,10214.842000,-76915.987999
1840.736498,5033.400406,8142.265362,-78141.740796
1840.739055,3701.029710,8586.388927,-77988.521696
1840.741612,-1036.288319,-148.041188,-81665.780087
1840.744169,148.041188,-3552.988522,-82125.437386
1840.746726,1332.370696,3997.112087,-77528.864398
1840.749283,296.082377,9030.512492,-76915.987999
1840.751841,5477.523971,5773.606348,-78448.178995
1840.754398,10807.006753,5181.441594,-79061.055394
1840.756955,8586.388927,9030.512492,-80286.808190
1840.759512,1184.329507,7402.059420,-82585.094684
1840.762069,-740.205942,5477.523971,-76303.111601
1840.764626,1924.535449,8586.388927,-74770.920605
1840.767183,2960.823768,-1924.535449,-80286.808190
1840.769740,888.247130,1924.535449,-77988.521696
1840.772297,-5477.523971,-3701.029710,-81665.780087
1840.774854,-5329.482782,-6957.935855,-79367.493593
1840.777412,-3701.029710,9622.677246,-79214.274493
1840.779969,-3256.906145,-7254.018232,-79520.712692
1840.782526,740.205942,-3552.988522,-74464.482406
1840.785083,-5921.647536,2960.823768,-78448.178995
1840.787640,-4885.359217,-10807.006753,-81206.122788
1840.790197,-2368.659014,4589.276840,-78141.740796
1840.792754,-1332.370696,2960.823768,-79673.931792
1840.795311,740.205942,4441.235652,-78294.959896
1840.797869,-592.164754,296.082377,-77988.521696
1840.800426,-2960.823768,-6957.935855,-78141.740796
1840.802983,-9770.718434,-7846.182985,-77375.645298
1840.805540,-9770.718434,740.205942,-78141.740796
1840.808097,-5033.400406,-5033.400406,-81052.903688
1840.810654,-2960.823768,-5921.647536,-80593.246390
1840.813212,-2812.782580,10510.924376,-78601.398095
1840.815769,-2516.700203,-12731.542202,-80746.465489
1840.818326,-3849.070898,-2812.782580,-73698.386908
1840.820883,6365.771101,20133.601622,-78294.959896
1840.823440,9326.594869,-4589.276840,-80899.684589
1840.825998,5921.647536,19245.354492,-75996.673402
1840.828555,-7550.100608,-5033.400406,-85496.257577
1840.831112,1776.494261,-1332.370696,-78448.178995
1840.833669,3552.988522,10510.924376,-76609.549800
1840.836226,4737.318029,5033.400406,-77528.864398
1840.838783,6069.688724,9770.718434,-77222.426198
1840.841341,-444.123565,-2812.782580,-80593.246390
1840.843898,-1924.535449,-1924.535449,-82431.875585
1840.846455,296.082377,4589.276840,-78448.178995
1840.849012,3404.947333,8586.388927,-77528.864398
1840.851569,6365.771101,6809.894666,-77835.302597
1840.854127,10658.965565,6069.688724,-79214.274493
1840.856684,8734.430116,-444.123565,-79827.150892
1840.859241,6513.812290,13767.830521,-77988.521696
1840.861798,-1628.453072,1184.329507,-80133.589091
1840.864355,2664.741391,9622.677246,-75996.673402
1840.866912,3997.112087,-592.164754,-80593.246390
1840.869470,-2072.576638,-6957.935855,-79214.274493
1840.872027,-592.164754,1332.370696,-79980.369991
1840.874584,-7698.141797,-17468.860231,-80440.027290
1840.877141,-3256.906145,8882.471304,-74311.263306
1840.879698,-6661.853478,3108.864956,-79980.369991
1840.882256,296.082377,-8290.306550,-78754.617194
1840.884813,-5477.523971,2220.617826,-78141.740796
1840.887370,-5477.523971,-7402.059420,-81512.560987
1840.889927,-148.041188,2368.659014,-78141.740796
1840.892484,-148.041188,444.123565,-79673.931792
1840.895012,-1036.288319,1924.535449,-77375.645298
1840.897541,-3701.029710,-4441.235652,-77682.083497
1840.900069,-6069.688724,-3552.988522,-78754.617194
1840.902597,-8290.306550,-7846.182985,-80286.808190
1840.905125,-6661.853478,-740.205942,-77682.083497
1840.907653,-3256.906145,1184.329507,-77988.521696
1840.910181,3108.864956,-7550.100608,-81665.780087
1840.912710,-7550.100608,-1036.288319,-78141.740796
1840.915238,-5329.482782,-3256.906145,-80440.027290
1840.917766,-2368.659014,-6365.771101,-76303.111601
1840.920294,8586.388927,25315.043216,-73698.386908
1840.922822,6661.853478,11399.171507,-82738.313784
1840.925350,2368.659014,-10214.842000,-81206.122788
1840.927879,-1480.411884,8586.388927,-78141.740796
1840.930407,-1480.411884,-9918.759623,-83504.409282
1840.932935,11399.171507,17468.860231,-74158.044206
1840.935463,2220.617826,11695.253884,-78907.836294
1840.937991,2960.823768,592.164754,-80440.027290
1840.940519,740.205942,-2368.659014,-79061.055394
1840.943048,1332.370696,4737.318029,-79673.931792
1840.945576,-888.247130,5477.523971,-78448.178995
1840.948104,5773.606348,9178.553681,-76762.768900
1840.950632,11399.171507,8438.347739,-77988.521696
1840.953160,9474.636058,2664.741391,-81818.999186
1840.955688,4145.153275,7994.224174,-79980.369991
1840.958216,-1776.494261,9326.594869,-77528.864398
1840.960745,-444.123565,2960.823768,-77222.426198
1840.963273,4441.235652,-1184.329507,-77682.083497
1840.965801,-1332.370696,9178.553681,-78294.959896
1840.968329,-3108.864956,-14508.036463,-84883.381178
1840.970857,-5181.441594,-4441.235652,-77222.426198
1840.973385,-7254.018232,11547.212695,-79214.274493
1840.975914,-6217.729913,-1332.370696,-80593.246390
1840.978442,1776.494261,-11251.130318,-75996.673402
1840.980970,-4145.153275,4885.359217,-76149.892501
1840.983498,-9622.677246,-10658.965565,-82585.094684
1840.986026,2072.576638,4293.194464,-78141.740796
1840.988554,-2368.659014,1480.411884,-80593.246390
1840.991083,888.247130,6217.729913,-78448.178995
1840.993611,-1480.411884,1628.453072,-77988.521696
1840.996145,-5921.647536,-12287.418637,-79367.493593
1840.998678,-10214.842000,-8438.347739,-77375.645298
1841.001212,-3849.070898,-1628.453072,-77682.083497
1841.003746,-4145.153275,5625.565159,-78294.959896
1841.006280,2220.617826,-6957.935855,-83810.847481
1841.008814,-8438.347739,148.041188,-78294.959896
1841.011347,-5033.400406,-1184.329507,-79980.369991
1841.013881,-592.164754,-9622.677246,-75843.454302
1841.016415,10658.965565,27535.661042,-73238.729609
1841.018949,7698.141797,-1480.411884,-83197.971083
1841.021483,6809.894666,7550.100608,-77222.426198
1841.024016,-5033.400406,4885.359217,-83657.628382
1841.026550,592.164754,-8586.388927,-83351.190182
1841.029084,9622.677246,13619.789333,-73851.606007
1841.031618,2812.782580,8142.265362,-78141.740796
1841.034152,3108.864956,-296.082377,-77988.521696
1841.036685,1480.411884,-1184.329507,-79827.150892
1841.039219,-148.041188,-2220.617826,-82585.094684
1841.041753,-444.123565,6809.894666,-78601.398095
1841.044287,2960.823768,16728.654289,-76915.987999
1841.046821,10362.883188,8142.265362,-78294.959896
1841.049354,7846.182985,2812.782580,-79214.274493
1841.051888,6217.729913,6809.894666,-78754.617194
1841.054422,-4737.318029,-444.123565,-79827.150892
1841.056956,2516.700203,9326.594869,-76303.111601
1841.059490,3108.864956,7550.100608,-78448.178995
1841.062023,-592.164754,2664.741391,-81052.903688
1841.064557,-2072.576638,-8586.388927,-81052.903688
1841.067091,-4441.235652,-9918.759623,-79214.274493
1841.069625,-5625.565159,5181.441594,-77375.645298
1841.072159,-3552.988522,-5921.647536,-78448.178995
1841.074692,-148.041188,3404.947333,-74770.920605
1841.077234,-5625.565159,-2072.576638,-79061.055394
1841.079772,-7105.977043,-8142.265362,-82738.313784
1841.082310,2516.700203,3108.864956,-77069.207099
1841.084849,0.000000,740.205942,-79367.493593
1841.087387,-148.041188,5921.647536,-76456.330700
1841.089925,-2664.741391,-1480.411884,-78141.740796
1841.092463,-6513.812290,-13027.624579,-80286.808190
1841.095001,-9770.718434,-8438.347739,-79827.150892
1841.097539,-7550.100608,-1924.535449,-78754.617194
1841.100077,-2960.823768,6809.894666,-78141.740796
1841.102615,2220.617826,-3997.112087,-81052.903688
1841.105153,-9030.512492,-12435.459826,-79520.712692
1841.107691,-6217.729913,3108.864956,-77988.521696
1841.110229,3849.070898,-11251.130318,-78907.836294
1841.112767,8882.471304,32272.979071,-71859.757712
1841.115306,4885.359217,6513.812290,-83964.066581
1841.117844,6513.812290,-1480.411884,-77069.207099
1841.120382,296.082377,2812.782580,-81665.780087
1841.122920,148.041188,-9030.512492,-81206.122788
1841.125458,9918.759623,16432.571912,-74464.482406
1841.127996,3849.070898,9030.512492,-78907.836294
1841.130534,4145.153275,888.247130,-81206.122788
1841.133072,2516.700203,-5033.400406,-80440.027290
1841.135610,148.041188,740.205942,-80133.589091
1841.138148,-1184.329507,9918.759623,-77375.645298
1841.140686,8734.430116,10362.883188,-75996.673402
1841.143224,13619.789333,8290.306550,-77988.521696
1841.145763,6365.771101,1332.370696,-83044.751983
1841.148301,3404.947333,3552.988522,-81359.341888
1841.150839,-3404.947333,9178.553681,-77988.521696
1841.153377,1332.370696,7402.059420,-76609.549800
1841.155915,5625.565159,6809.894666,-75690.235202
1841.158453,-296.082377,-6661.853478,-79980.369991
1841.160991,-3404.947333,-10214.842000,-81818.999186
1841.163529,-5477.523971,-9770.718434,-81052.903688
1841.166067,-4441.235652,7105.977043,-77375.645298
1841.168605,-4293.194464,3997.112087,-77682.083497
1841.171143,444.123565,-1924.535449,-76609.549800
1841.173681,-5773.606348,-4293.194464,-78907.836294
1841.176220,-6809.894666,-12731.542202,-80440.027290
1841.178761,-4441.235652,4441.235652,-77069.207099
1841.181303,592.164754,4145.153275,-79367.493593
1841.183845,1036.288319,4885.359217,-79061.055394
1841.186387,-5033.400406,-5477.523971,-78754.617194
1841.188929,-8734.430116,-10066.800811,-77375.645298
1841.191470,-10510.924376,-9474.636058,-76762.768900
1841.194012,-5329.482782,1184.329507,-76915.987999
1841.196554,-5033.400406,-1628.453072,-79214.274493
1841.199096,888.247130,3108.864956,-81665.780087
1841.201637,-3997.112087,-11843.295072,-82738.313784
1841.204179,-6513.812290,3849.070898,-78754.617194
1841.206721,4737.318029,-2812.782580,-79367.493593
1841.209263,12583.501014,1332.370696,-75383.797003
1841.211805,6957.935855,22502.260637,-74004.825107
1841.214346,-5181.441594,-10510.924376,-85649.476676
1841.216888,5033.400406,-148.041188,-79520.712692
1841.219430,1924.535449,6957.935855,-80899.684589
1841.221972,4737.318029,10066.800811,-77682.083497
1841.224514,7846.182985,13175.665768,-75383.797003
1841.227055,1480.411884,-2072.576638,-80133.589091
1841.229597,-2516.700203,-8142.265362,-80440.027290
1841.232139,296.082377,2368.659014,-77835.302597
1841.234681,2072.576638,13767.830521,-77988.521696
1841.237223,10807.006753,16136.489536,-80286.808190
1841.239764,12583.501014,5477.523971,-81052.903688
1841.242306,3404.947333,2516.700203,-78754.617194
1841.244848,-3552.988522,3997.112087,-78754.617194
1841.247390,740.205942,1776.494261,-75843.454302
1841.249932,6809.894666,9770.718434,-75077.358804
1841.252473,-148.041188,7994.224174,-79827.150892
1841.255015,1332.370696,-9178.553681,-82278.656485
1841.257557,-9474.636058,-9178.553681,-81512.560987
1841.260099,-6217.729913,3552.988522,-77682.083497
1841.262641,-4885.359217,-1184.329507,-76456.330700
1841.265182,-740.205942,4441.235652,-72625.853210
1841.267724,-3701.029710,-2368.659014,-79214.274493
1841.270266,-4145.153275,-13619.789333,-81818.999186
1841.272808,-2960.823768,1628.453072,-79367.493593
1841.275350,-740.205942,740.205942,-80133.589091
1841.277891,2072.576638,11547.212695,-76762.768900
1841.280437,-1332.370696,2072.576638,-77682.083497
1841.282982,-9178.553681,-16136.489536,-78601.398095
1841.285527,-11547.212695,-13915.871710,-78601.398095
1841.288072,-7402.059420,2516.700203,-77835.302597
1841.290617,-2368.659014,1628.453072,-79061.055394
1841.293162,-444.123565,4441.235652,-80593.246390
1841.295707,-2812.782580,-12287.418637,-81359.341888
1841.298253,-6809.894666,1036.288319,-78601.398095
1841.300798,4441.235652,-5625.565159,-80133.589091
1841.303343,6365.771101,14952.160028,-70787.224015
1841.305888,6217.729913,28571.949361,-77835.302597
1841.308433,2960.823768,-10362.883188,-82891.532884
1841.310978,4589.276840,4589.276840,-79980.369991
1841.313523,-444.123565,4145.153275,-81206.122788
1841.316069,3701.029710,7254.018232,-76915.987999
1841.318614,6661.853478,20429.683999,-73545.167808
1841.321159,2072.576638,-2072.576638,-80593.246390
1841.323704,-888.247130,-7402.059420,-80593.246390
1841.326249,148.041188,740.205942,-79520.712692
1841.328794,1924.535449,7550.100608,-79827.150892
1841.331340,8734.430116,17764.942608,-77069.207099
1841.333885,10066.800811,9030.512492,-78141.740796
1841.336430,4145.153275,3997.112087,-80286.808190
1841.338975,-2516.700203,888.247130,-79827.150892
1841.341520,1184.329507,1036.288319,-76915.987999
1841.344065,4737.318029,10658.965565,-74311.263306
1841.346610,1480.411884,13619.789333,-79061.055394
1841.349156,296.082377,-17320.819043,-82891.532884
1841.351701,-7402.059420,-8882.471304,-79061.055394
1841.354246,-7846.182985,6957.935855,-78601.398095
1841.356791,-3849.070898,-148.041188,-79061.055394
1841.359336,740.205942,3849.070898,-74311.263306
1841.361881,-4589.276840,-2664.741391,-79061.055394
1841.364426,-6365.771101,-11695.253884,-81818.999186
1841.366972,-1628.453072,2220.617826,-78141.740796
1841.369517,740.205942,5033.400406,-78907.836294
1841.372062,296.082377,8142.265362,-77528.864398
1841.374607,-2664.741391,-3552.988522,-78141.740796
1841.377152,-9474.636058,-13471.748144,-80286.808190
1841.379697,-12583.501014,-14508.036463,-78601.398095
1841.382246,-6513.812290,592.164754,-76303.111601
1841.384794,-148.041188,5773.606348,-78141.740796
1841.387343,-1036.288319,4145.153275,-80286.808190
1841.389891,-2516.700203,-14063.912898,-81206.122788
1841.392439,-4441.235652,-16284.530724,-77682.083497
1841.394988,3849.070898,28423.908173,-75843.454302
1841.397536,9770.718434,1776.494261,-81818.999186
1841.400084,9770.718434,20725.766376,-71859.757712
1841.402633,-4885.359217,-1924.535449,-83504.409282
1841.405181,0.000000,-12435.459826,-80899.684589
1841.407730,6069.688724,13027.624579,-77682.083497
1841.410278,1628.453072,6957.935855,-80746.465489
1841.412826,9030.512492,15396.283594,-75383.797003
1841.415375,1924.535449,1332.370696,-79520.712692
1841.417923,-3701.029710,5033.400406,-82431.875585
1841.420472,2368.659014,3701.029710,-77988.521696
1841.423020,7994.224174,17320.819043,-75843.454302
1841.425568,12435.459826,13323.706956,-77682.083497
1841.428117,4145.153275,12731.542202,-79520.712692
1841.430665,4885.359217,1332.370696,-82125.437386
1841.433214,-1776.494261,-9326.594869,-79673.931792
1841.435762,444.123565,11547.212695,-75230.577904
1841.438310,4293.194464,12287.418637,-76609.549800
1841.440859,1776.494261,-1776.494261,-77988.521696
1841.443407,-2664.741391,-9770.718434,-78907.836294
1841.445955,-12879.583391,-17468.860231,-82891.532884
1841.448504,-5625.565159,11695.253884,-76149.892501
1841.451052,-2368.659014,5773.606348,-80286.808190
1841.453601,1628.453072,-5773.606348,-75690.235202
1841.456149,-3256.906145,-1776.494261,-76456.330700
1841.458697,-8586.388927,-13471.748144,-81359.341888
1841.461246,-3701.029710,-148.041188,-78141.740796
1841.463794,1480.411884,8882.471304,-78448.178995
1841.466343,444.123565,10214.842000,-77988.521696
1841.468891,-4885.359217,-2960.823768,-80133.589091
1841.471439,-11103.089130,-14952.160028,-78601.398095
1841.473988,-12139.377449,-15988.448347,-78141.740796
1841.476536,-4589.276840,3108.864956,-75537.016103
1841.479085,5773.606348,4737.318029,-77988.521696
1841.481633,-8290.306550,1924.535449,-81052.903688
1841.484183,-5773.606348,444.123565,-82125.437386
1841.486734,3849.070898,-18505.148550,-82431.875585
1841.489284,6513.812290,21614.013506,-73391.948708
1841.491835,4589.276840,12879.583391,-78754.617194
1841.494385,7994.224174,7550.100608,-74004.825107
1841.496935,4737.318029,3849.070898,-78448.178995
1841.499486,-3108.864956,-8586.388927,-83964.066581
1841.502036,6957.935855,13915.871710,-78141.740796
1841.504587,4441.235652,18505.148550,-78601.398095
1841.507137,2072.576638,-888.247130,-79520.712692
1841.509688,1332.370696,-1628.453072,-76609.549800
1841.512238,-3108.864956,-4589.276840,-79214.274493
1841.514788,4293.194464,3849.070898,-79214.274493
1841.517339,9918.759623,19541.436869,-76915.987999
1841.519889,10066.800811,16432.571912,-80133.589091
1841.522440,5181.441594,1776.494261,-82278.656485
1841.524990,-2516.700203,-2516.700203,-81206.122788
1841.527540,-444.123565,888.247130,-77069.207099
1841.530091,888.247130,4589.276840,-74770.920605
1841.532641,3849.070898,18949.272115,-74464.482406
1841.535192,-1924.535449,-12435.459826,-83197.971083
1841.537742,-9178.553681,-13767.830521,-80440.027290
1841.540293,-8882.471304,1036.288319,-81818.999186
1841.542843,-4145.153275,-2960.823768,-80593.246390
1841.545393,296.082377,5477.523971,-74158.044206
1841.547944,-1480.411884,-2664.741391,-75690.235202
1841.550494,-10214.842000,-8142.265362,-79214.274493
1841.553045,-1776.494261,-4293.194464,-80286.808190
1841.555595,-1184.329507,3997.112087,-79827.150892
1841.558145,148.041188,10214.842000,-79367.493593
1841.560696,-4737.318029,-592.164754,-79214.274493
1841.563246,-6661.853478,-9918.759623,-79673.931792
1841.565797,-11991.336260,-17616.901420,-77988.521696
1841.568347,-8586.388927,-8438.347739,-76149.892501
1841.570897,-740.205942,1924.535449,-77375.645298
1841.573448,-2368.659014,13175.665768,-80286.808190
1841.575998,-5033.400406,-1480.411884,-83197.971083
1841.578549,-148.041188,-16728.654289,-81818.999186
1841.581099,5625.565159,18357.107362,-74617.701505
1841.583650,6661.853478,8142.265362,-77988.521696
1841.586202,9622.677246,15988.448347,-72932.291410
1841.588754,0.000000,-296.082377,-81665.780087
1841.591307,-740.205942,-9918.759623,-81052.903688
1841.593859,5921.647536,13471.748144,-79980.369991
1841.596412,4441.235652,6957.935855,-82125.437386
1841.598964,5773.606348,12435.459826,-76149.892501
1841.601517,296.082377,-148.041188,-76303.111601
1841.604069,-5477.523971,-8142.265362,-80133.589091
1841.606622,5033.400406,740.205942,-78754.617194
1841.609174,9178.553681,19985.560434,-76915.987999
1841.611726,8438.347739,17468.860231,-81359.341888
1841.614279,7846.182985,2072.576638,-81359.341888
1841.616831,-296.082377,3849.070898,-77988.521696
1841.619384,-2516.700203,-2072.576638,-79827.150892
1841.621936,296.082377,-1924.535449,-75843.454302
1841.624489,5773.606348,21021.848753,-73085.510509
1841.627041,-4293.194464,-9770.718434,-83504.409282
1841.629594,-12731.542202,-8882.471304,-79673.931792
1841.632146,-4589.276840,-1480.411884,-83197.971083
1841.634699,-6809.894666,-10066.800811,-79061.055394
1841.637251,-148.041188,13915.871710,-73238.729609
1841.639803,-4589.276840,-1924.535449,-79061.055394
1841.642356,-592.164754,-8734.430116,-78907.836294
1841.644908,-3404.947333,-7550.100608,-79520.712692
1841.647461,-2960.823768,-296.082377,-80286.808190
1841.650013,0.000000,11103.089130,-78907.836294
1841.652566,-2664.741391,-148.041188,-78294.959896
1841.655118,-9030.512492,-9326.594869,-78141.740796
1841.657671,-11103.089130,-18801.230927,-79367.493593
1841.660223,-6661.853478,-8142.265362,-78141.740796
1841.662775,3256.906145,2516.700203,-76762.768900
1841.665328,-6069.688724,11547.212695,-79673.931792
1841.667880,-296.082377,-3404.947333,-82431.875585
1841.670433,-2664.741391,-16876.695478,-81206.122788
1841.672985,5773.606348,22650.301825,-76456.330700
1841.675538,8586.388927,-592.164754,-80899.684589
1841.678090,9326.594869,5921.647536,-73851.606007
1841.680643,2960.823768,6365.771101,-80593.246390
1841.683195,-3108.864956,-14508.036463,-83810.847481
1841.685747,8290.306550,19689.478057,-76456.330700
1841.688302,3997.112087,6365.771101,-83504.409282
1841.690856,2220.617826,5773.606348,-75843.454302
1841.693411,0.000000,2812.782580,-76915.987999
1841.695965,-2072.576638,-7105.977043,-80286.808190
