#time,accel_x,accel_y,accel_z
1330.941326,592.164754,1184.329507,-78294.959896
1330.943875,-444.123565,1184.329507,-78754.617194
1330.946427,-592.164754,0.000000,-79367.493593
1330.948980,-148.041188,2072.576638,-78907.836294
1330.951532,444.123565,2664.741391,-79061.055394
1330.954085,-1332.370696,1480.411884,-79827.150892
1330.956637,740.205942,1332.370696,-78601.398095
1330.959190,444.123565,1332.370696,-78294.959896
1330.961742,-148.041188,444.123565,-79214.274493
1330.964295,-444.123565,2516.700203,-79214.274493
1330.966847,592.164754,740.205942,-79214.274493
1330.969400,1036.288319,7105.977043,-78448.178995
1330.971952,444.123565,-592.164754,-80440.027290
1330.974505,2220.617826,2960.823768,-77375.645298
1330.977057,1480.411884,6217.729913,-78448.178995
1330.979609,4293.194464,2812.782580,-79673.931792
1330.982162,3552.988522,6217.729913,-77375.645298
1330.984714,0.000000,6661.853478,-80133.589091
1330.987267,4885.359217,8586.388927,-79214.274493
1330.989819,4737.318029,3256.906145,-78294.959896
1330.992372,1924.535449,9918.759623,-76762.768900
1330.994924,2516.700203,-1628.453072,-80133.589091
1330.997477,-1776.494261,-296.082377,-76915.987999
1331.000029,-2664.741391,2664.741391,-79520.712692
1331.002582,-9030.512492,-11399.171507,-81818.999186
1331.005134,-2960.823768,-1924.535449,-76915.987999
1331.007687,-4737.318029,7846.182985,-78601.398095
1331.010239,3256.906145,-2516.700203,-79214.274493
1331.012792,-2812.782580,5773.606348,-75383.797003
1331.015344,-888.247130,-1332.370696,-81052.903688
1331.017897,-4589.276840,-9326.594869,-78754.617194
1331.020449,-2368.659014,8586.388927,-76915.987999
1331.023002,-3552.988522,-9178.553681,-80746.465489
1331.025554,1036.288319,1628.453072,-76762.768900
1331.028107,-5033.400406,7254.018232,-77222.426198
1331.030659,-3404.947333,-2664.741391,-81512.560987
1331.033212,-148.041188,-740.205942,-78294.959896
1331.035764,-888.247130,-740.205942,-77528.864398
1331.038317,-1480.411884,148.041188,-77988.521696
1331.040869,296.082377,3849.070898,-78141.740796
1331.043422,-2664.741391,1332.370696,-81052.903688
1331.045974,-4145.153275,-2072.576638,-81665.780087
1331.048530,-6809.894666,-5033.400406,-79061.055394
1331.051085,-3997.112087,-1036.288319,-77835.302597
1331.053641,-5181.441594,-5033.400406,-77528.864398
1331.056196,148.041188,2960.823768,-77069.207099
1331.058752,-1628.453072,-4737.318029,-80133.589091
1331.061307,-2960.823768,3552.988522,-79980.369991
1331.063863,-6513.812290,-5921.647536,-81512.560987
1331.066418,-2220.617826,-1332.370696,-75537.016103
1331.068974,-4145.153275,3404.947333,-76609.549800
1331.071529,0.000000,-5477.523971,-78601.398095
1331.074085,-2960.823768,148.041188,-77069.207099
1331.076640,-740.205942,-5033.400406,-83504.409282
1331.079196,-2072.576638,-3108.864956,-79980.369991
1331.081751,2368.659014,15988.448347,-75077.358804
1331.084307,7550.100608,11843.295072,-79520.712692
1331.086862,5181.441594,-2960.823768,-78294.959896
1331.089418,-2960.823768,6513.812290,-77069.207099
1331.091973,-9326.594869,-19097.313304,-83657.628382
1331.094529,3404.947333,7550.100608,-74924.139704
1331.097085,3108.864956,7846.182985,-80440.027290
1331.099640,1628.453072,11103.089130,-79214.274493
1331.102196,7698.141797,-2072.576638,-81052.903688
1331.104751,-592.164754,-1480.411884,-78754.617194
1331.107307,-444.123565,8586.388927,-78294.959896
1331.109862,296.082377,6365.771101,-76762.768900
1331.112418,4737.318029,6217.729913,-78141.740796
1331.114973,4293.194464,740.205942,-81665.780087
1331.117529,-148.041188,-2960.823768,-83351.190182
1331.120084,4441.235652,5181.441594,-79673.931792
1331.122640,-2220.617826,5477.523971,-78141.740796
1331.125195,3701.029710,8438.347739,-76762.768900
1331.127751,4589.276840,2220.617826,-75537.016103
1331.130306,444.123565,-1332.370696,-79520.712692
1331.132862,444.123565,3849.070898,-80746.465489
1331.135417,296.082377,7105.977043,-80593.246390
1331.137973,-888.247130,4589.276840,-79980.369991
1331.140528,1776.494261,296.082377,-78294.959896
1331.143084,1924.535449,-444.123565,-77069.207099
1331.145640,5477.523971,4145.153275,-77988.521696
1331.148195,3552.988522,6069.688724,-79520.712692
1331.150753,6513.812290,6217.729913,-79214.274493
1331.153312,3849.070898,6513.812290,-80286.808190
1331.155870,-592.164754,4589.276840,-80440.027290
1331.158428,2220.617826,1480.411884,-79520.712692
1331.160987,1036.288319,2368.659014,-78141.740796
1331.163545,-296.082377,1628.453072,-78141.740796
1331.166103,3997.112087,3701.029710,-77528.864398
1331.168661,1924.535449,9030.512492,-79673.931792
1331.171220,8142.265362,3701.029710,-83044.751983
1331.173778,148.041188,2664.741391,-78601.398095
1331.176336,-5033.400406,2664.741391,-78294.959896
1331.178895,-4737.318029,-8290.306550,-78294.959896
1331.181453,-1184.329507,6217.729913,-75383.797003
1331.184011,1332.370696,-7254.018232,-80899.684589
1331.186570,296.082377,6809.894666,-77222.426198
1331.189128,5181.441594,16876.695478,-79673.931792
1331.191686,-3256.906145,-11251.130318,-83044.751983
1331.194244,-3849.070898,7105.977043,-73085.510509
1331.196803,-5033.400406,-5921.647536,-79214.274493
1331.199361,-3404.947333,-6069.688724,-77528.864398
1331.201919,-1924.535449,2368.659014,-78754.617194
1331.204478,-740.205942,-7846.182985,-82278.656485
1331.207036,-2812.782580,10214.842000,-79061.055394
1331.209594,0.000000,-3701.029710,-82125.437386
1331.212153,-5181.441594,-4145.153275,-76303.111601
1331.214711,1924.535449,6809.894666,-73085.510509
1331.217269,-2516.700203,-6957.935855,-79061.055394
1331.219827,1776.494261,3404.947333,-78754.617194
1331.222386,-5033.400406,1480.411884,-81206.122788
1331.224944,-3849.070898,-4737.318029,-83351.190182
1331.227502,-296.082377,3108.864956,-78294.959896
1331.230061,-2960.823768,0.000000,-77682.083497
1331.232621,296.082377,-2516.700203,-75996.673402
1331.235181,-148.041188,-1332.370696,-77375.645298
1331.237741,-2960.823768,148.041188,-79980.369991
1331.240301,-3404.947333,1776.494261,-81512.560987
1331.242861,-6069.688724,444.123565,-80899.684589
1331.245421,-4885.359217,-9030.512492,-80593.246390
1331.247981,-2220.617826,-3849.070898,-75690.235202
1331.250541,-1924.535449,2516.700203,-76609.549800
1331.253101,444.123565,-3108.864956,-79367.493593
1331.255661,-3552.988522,5181.441594,-78141.740796
1331.258221,-7698.141797,-1480.411884,-82738.313784
1331.260781,-2812.782580,-4145.153275,-79214.274493
1331.263342,-1184.329507,-592.164754,-78754.617194
1331.265902,-148.041188,-6513.812290,-78601.398095
1331.268462,-4145.153275,-3701.029710,-77222.426198
1331.271022,-888.247130,5477.523971,-79061.055394
1331.273582,148.041188,-6957.935855,-81512.560987
1331.276142,3404.947333,17024.736666,-76762.768900
1331.278702,7105.977043,4145.153275,-81512.560987
1331.281262,6217.729913,2812.782580,-76915.987999
1331.283822,-5033.400406,8290.306550,-77528.864398
1331.286382,-7550.100608,-17320.819043,-81512.560987
1331.288942,1776.494261,9178.553681,-75383.797003
1331.291502,-296.082377,3849.070898,-82125.437386
1331.294062,3701.029710,7698.141797,-80286.808190
1331.296623,5921.647536,4885.359217,-79520.712692
1331.299183,296.082377,-4885.359217,-78141.740796
1331.301743,740.205942,6217.729913,-76762.768900
1331.304303,592.164754,4885.359217,-77528.864398
1331.306863,6661.853478,6365.771101,-78294.959896
1331.309423,3701.029710,4589.276840,-79827.150892
1331.311983,1036.288319,2220.617826,-80899.684589
1331.314543,740.205942,6069.688724,-79980.369991
1331.317103,740.205942,-3701.029710,-78601.398095
1331.319663,4145.153275,6661.853478,-74617.701505
1331.322223,296.082377,3849.070898,-77528.864398
1331.324783,592.164754,0.000000,-79827.150892
1331.327343,-1184.329507,3849.070898,-81818.999186
1331.329903,-1332.370696,3404.947333,-80286.808190
1331.332464,1332.370696,1628.453072,-79367.493593
1331.335025,3552.988522,4441.235652,-77069.207099
1331.337587,4145.153275,3849.070898,-78601.398095
1331.340149,6661.853478,296.082377,-79827.150892
1331.342711,2960.823768,5773.606348,-77528.864398
1331.345272,1332.370696,13175.665768,-79980.369991
1331.347834,2516.700203,4737.318029,-81206.122788
1331.350396,3108.864956,-2812.782580,-78907.836294
1331.352958,2368.659014,2664.741391,-78448.178995
1331.355520,-1628.453072,-2368.659014,-79214.274493
1331.358081,2368.659014,13619.789333,-76915.987999
1331.360643,6365.771101,-888.247130,-81052.903688
1331.363205,3552.988522,11399.171507,-77528.864398
1331.365767,-2516.700203,7254.018232,-80440.027290
1331.368329,-4885.359217,-14211.954086,-79827.150892
1331.370890,-3997.112087,3849.070898,-73851.606007
1331.373452,-6365.771101,-1480.411884,-79520.712692
1331.376014,1776.494261,4885.359217,-80440.027290
1331.378576,7846.182985,5921.647536,-81359.341888
1331.381137,-1332.370696,-1184.329507,-80133.589091
1331.383699,-6513.812290,6661.853478,-76915.987999
1331.386261,-11103.089130,-9918.759623,-76149.892501
1331.388823,444.123565,2812.782580,-73851.606007
1331.391385,-2516.700203,-9326.594869,-81052.903688
1331.393946,-444.123565,592.164754,-79827.150892
1331.396508,-1924.535449,1924.535449,-83964.066581
1331.399070,-3997.112087,-5329.482782,-81512.560987
1331.401632,592.164754,7994.224174,-72625.853210
1331.404194,-6661.853478,-5033.400406,-76149.892501
1331.406755,-1184.329507,-3256.906145,-73545.167808
1331.409317,-1036.288319,5033.400406,-79980.369991
1331.411879,-3108.864956,-7105.977043,-85343.038477
1331.414441,-2516.700203,6365.771101,-81206.122788
1331.417002,-3997.112087,1332.370696,-81665.780087
1331.419564,148.041188,-1036.288319,-76303.111601
1331.422126,148.041188,-148.041188,-73085.510509
1331.424688,-1332.370696,-5329.482782,-76149.892501
1331.427250,-1184.329507,-740.205942,-80440.027290
1331.429811,-3404.947333,4293.194464,-82125.437386
1331.432373,-3256.906145,1628.453072,-83657.628382
1331.434935,-5033.400406,-5033.400406,-81206.122788
1331.437498,-3404.947333,-740.205942,-75537.016103
1331.440060,-2664.741391,-9622.677246,-75690.235202
1331.442623,-1628.453072,2812.782580,-74004.825107
1331.445185,-7994.224174,888.247130,-81206.122788
1331.447748,-888.247130,296.082377,-80440.027290
1331.450310,-3849.070898,2664.741391,-82585.094684
1331.452873,-3404.947333,-7846.182985,-81206.122788
1331.455436,-5625.565159,-2220.617826,-74617.701505
1331.457998,1924.535449,-5033.400406,-77069.207099
1331.460561,-4885.359217,-3404.947333,-76762.768900
1331.463123,5181.441594,17024.736666,-79980.369991
1331.465686,7846.182985,-1332.370696,-84117.285680
1331.468248,4145.153275,16432.571912,-77528.864398
1331.470811,-3701.029710,-1628.453072,-79827.150892
1331.473374,-6513.812290,-13027.624579,-75690.235202
1331.475936,-296.082377,8438.347739,-74158.044206
1331.478499,740.205942,-3108.864956,-81052.903688
1331.481061,9770.718434,9622.677246,-81052.903688
1331.483624,5477.523971,9474.636058,-82125.437386
1331.486187,-4737.318029,-3849.070898,-81512.560987
1331.488749,444.123565,7254.018232,-73851.606007
1331.491312,1184.329507,1184.329507,-75537.016103
1331.493874,6513.812290,740.205942,-77528.864398
1331.496437,3997.112087,9326.594869,-79673.931792
1331.498999,444.123565,1924.535449,-85036.600278
1331.501562,3108.864956,2368.659014,-81052.903688
1331.504125,-2072.576638,5773.606348,-78294.959896
1331.506687,296.082377,2516.700203,-75843.454302
1331.509250,2960.823768,592.164754,-75230.577904
1331.511812,-296.082377,1628.453072,-79367.493593
1331.514375,148.041188,1480.411884,-83044.751983
1331.516937,0.000000,6513.812290,-82278.656485
1331.519500,-1184.329507,5773.606348,-81206.122788
1331.522063,3849.070898,592.164754,-77682.083497
1331.524625,3701.029710,2516.700203,-74770.920605
1331.527188,6217.729913,2960.823768,-76456.330700
1331.529750,4737.318029,7402.059420,-78448.178995
1331.532313,-148.041188,8882.471304,-81512.560987
1331.534876,740.205942,5033.400406,-81818.999186
1331.537438,2812.782580,1628.453072,-78601.398095
1331.540002,888.247130,296.082377,-78294.959896
1331.542565,1776.494261,4737.318029,-76915.987999
1331.545129,6809.894666,-592.164754,-78601.398095
1331.547692,3701.029710,13915.871710,-77222.426198
1331.550256,-1628.453072,3849.070898,-84576.942979
1331.552819,-1480.411884,-2516.700203,-80133.589091
1331.555383,-5773.606348,-444.123565,-77069.207099
1331.557946,-7846.182985,-6661.853478,-76149.892501
1331.560510,1628.453072,7846.182985,-76149.892501
1331.563073,5477.523971,1776.494261,-83197.971083
1331.565637,1628.453072,2812.782580,-80899.684589
1331.568200,-4145.153275,3404.947333,-80440.027290
1331.570764,-11547.212695,-8586.388927,-78294.959896
1331.573327,-1036.288319,2072.576638,-74770.920605
1331.575891,-4145.153275,-7402.059420,-77682.083497
1331.578454,2072.576638,740.205942,-78448.178995
1331.581018,-2072.576638,-4145.153275,-83964.066581
1331.583581,-4737.318029,1924.535449,-82125.437386
1331.586145,-2960.823768,7402.059420,-78141.740796
1331.588708,-4145.153275,-6217.729913,-77069.207099
1331.591272,-740.205942,1480.411884,-73238.729609
1331.593835,-5921.647536,-1036.288319,-79061.055394
1331.596399,-1332.370696,-2220.617826,-81512.560987
1331.598962,-2220.617826,1628.453072,-82738.313784
1331.601526,-1480.411884,3552.988522,-82125.437386
1331.604089,888.247130,-148.041188,-78294.959896
1331.606653,148.041188,-2664.741391,-75690.235202
1331.609216,-4293.194464,-5625.565159,-75230.577904
1331.611780,-4293.194464,-888.247130,-77528.864398
1331.614343,-4885.359217,4441.235652,-79673.931792
1331.616907,-1184.329507,-740.205942,-83810.847481
1331.619470,-5921.647536,-296.082377,-80899.684589
1331.622034,-444.123565,-7698.141797,-79827.150892
1331.624597,-2812.782580,-6513.812290,-74924.139704
1331.627161,-5477.523971,3404.947333,-75383.797003
1331.629724,-3256.906145,-2812.782580,-79367.493593
1331.632288,592.164754,6957.935855,-79061.055394
1331.634851,-2664.741391,-2960.823768,-83964.066581
1331.637415,-3701.029710,-3404.947333,-79980.369991
1331.639978,-444.123565,-2960.823768,-75996.673402
1331.642552,-6365.771101,-8438.347739,-78601.398095
1331.645116,4293.194464,17616.901420,-75690.235202
1331.647681,10510.924376,1628.453072,-84270.504780
1331.650245,4293.194464,7402.059420,-79214.274493
1331.652810,-3256.906145,9178.553681,-80133.589091
1331.655374,-8438.347739,-18357.107362,-80133.589091
1331.657938,2960.823768,10066.800811,-71859.757712
1331.660503,1036.288319,1628.453072,-80440.027290
1331.663067,11399.171507,6661.853478,-80133.589091
1331.665631,3849.070898,7402.059420,-81512.560987
1331.668196,-4145.153275,-592.164754,-80286.808190
1331.670760,296.082377,8290.306550,-75230.577904
1331.673325,3552.988522,6217.729913,-75230.577904
1331.675889,8734.430116,-1036.288319,-77682.083497
1331.678453,3552.988522,4293.194464,-79827.150892
1331.681018,148.041188,3849.070898,-83197.971083
1331.683582,-888.247130,2960.823768,-81665.780087
1331.686147,-444.123565,6365.771101,-77835.302597
1331.688711,2516.700203,4145.153275,-74924.139704
1331.691275,1776.494261,-148.041188,-75230.577904
1331.693840,1036.288319,740.205942,-78141.740796
1331.696404,-888.247130,5181.441594,-82278.656485
1331.698969,3404.947333,8290.306550,-81818.999186
1331.701533,1628.453072,7698.141797,-79827.150892
1331.704097,5033.400406,-740.205942,-77988.521696
1331.706662,6365.771101,5329.482782,-74158.044206
1331.709226,4441.235652,1628.453072,-77988.521696
1331.711791,740.205942,10362.883188,-76915.987999
1331.714355,-2072.576638,7550.100608,-82278.656485
1331.716919,1776.494261,2960.823768,-80746.465489
1331.719484,3108.864956,-2516.700203,-79367.493593
1331.722048,2960.823768,9178.553681,-74617.701505
1331.724612,3108.864956,2664.741391,-78294.959896
1331.727177,3701.029710,5921.647536,-77222.426198
1331.729741,-592.164754,1184.329507,-80593.246390
1331.732306,-3849.070898,2220.617826,-80133.589091
1331.734870,-1480.411884,888.247130,-79673.931792
1331.737434,444.123565,-8586.388927,-78141.740796
1331.739999,-1036.288319,8290.306550,-74004.825107
1331.742563,1480.411884,-2220.617826,-81972.218286
1331.745128,-1628.453072,-3552.988522,-80899.684589
1331.747693,-2368.659014,5921.647536,-78754.617194
1331.750259,-4145.153275,-6661.853478,-78907.836294
1331.752824,-4737.318029,-1332.370696,-75690.235202
1331.755389,-3108.864956,148.041188,-78601.398095
1331.757954,-1924.535449,-8142.265362,-81512.560987
1331.760519,-1036.288319,5477.523971,-80286.808190
1331.763084,-5329.482782,-1776.494261,-81206.122788
1331.765649,-2072.576638,3256.906145,-76915.987999
1331.768215,-2960.823768,-3256.906145,-75690.235202
1331.770780,-2220.617826,-740.205942,-74464.482406
1331.773345,-296.082377,-2516.700203,-78754.617194
1331.775910,-2072.576638,0.000000,-81665.780087
1331.778475,-740.205942,4589.276840,-83504.409282
1331.781040,1924.535449,3552.988522,-79673.931792
1331.783605,-444.123565,-2664.741391,-77069.207099
1331.786170,-2960.823768,-8734.430116,-74924.139704
1331.788736,-4145.153275,-6217.729913,-76456.330700
1331.791301,-4885.359217,3849.070898,-78601.398095
1331.793866,-4737.318029,3552.988522,-83044.751983
1331.796431,-1332.370696,-3701.029710,-82585.094684
1331.798996,-4441.235652,-3552.988522,-79980.369991
1331.801561,-1776.494261,-4145.153275,-77375.645298
1331.804126,-3701.029710,-5329.482782,-74311.263306
1331.806692,-1628.453072,5329.482782,-75383.797003
1331.809257,-1924.535449,-4885.359217,-82125.437386
1331.811822,-2072.576638,3701.029710,-81206.122788
1331.814387,-3108.864956,-4885.359217,-83197.971083
1331.816952,-3256.906145,-148.041188,-76915.987999
1331.819517,2220.617826,592.164754,-76149.892501
1331.822082,3256.906145,1628.453072,-75230.577904
1331.824648,7846.182985,18061.024985,-79214.274493
1331.827213,2960.823768,-5921.647536,-83810.847481
1331.829778,-5181.441594,-6069.688724,-79214.274493
1331.832343,-2516.700203,8882.471304,-76149.892501
1331.834908,-740.205942,740.205942,-78294.959896
1331.837473,9918.759623,7846.182985,-76915.987999
1331.840038,4145.153275,3701.029710,-80133.589091
1331.842603,-2664.741391,1924.535449,-81359.341888
1331.845169,3701.029710,5625.565159,-77988.521696
1331.847734,-148.041188,4737.318029,-77528.864398
1331.850299,3701.029710,9178.553681,-74770.920605
1331.852864,5477.523971,-888.247130,-77988.521696
1331.855429,2516.700203,296.082377,-81052.903688
1331.857994,1776.494261,5625.565159,-81818.999186
1331.860559,-1628.453072,6069.688724,-79980.369991
1331.863124,444.123565,5921.647536,-75996.673402
1331.865689,-1036.288319,-444.123565,-75996.673402
1331.868254,2220.617826,-5329.482782,-75843.454302
1331.870819,-148.041188,4885.359217,-79214.274493
1331.873384,-2664.741391,7698.141797,-81512.560987
1331.875949,5477.523971,6069.688724,-82585.094684
1331.878514,3108.864956,11547.212695,-78601.398095
1331.881079,8734.430116,148.041188,-79061.055394
1331.883644,3997.112087,0.000000,-74311.263306
1331.886209,-1776.494261,9178.553681,-76915.987999
1331.888774,444.123565,444.123565,-81206.122788
1331.891339,1776.494261,9474.636058,-80593.246390
1331.893904,1924.535449,9770.718434,-82431.875585
1331.896469,12583.501014,-6661.853478,-80899.684589
1331.899034,2960.823768,16580.613101,-72166.195912
1331.901599,-6809.894666,-2664.741391,-80899.684589
1331.904164,-2220.617826,-1924.535449,-76303.111601
1331.906729,-296.082377,444.123565,-79980.369991
1331.909294,-4145.153275,-4589.276840,-81512.560987
1331.911859,5773.606348,7994.224174,-79367.493593
1331.914424,888.247130,-4441.235652,-80133.589091
1331.916989,-1924.535449,9326.594869,-75230.577904
1331.919554,-5329.482782,-7846.182985,-81972.218286
1331.922119,-3997.112087,-4145.153275,-75537.016103
1331.924684,-1924.535449,3849.070898,-78141.740796
1331.927249,-3552.988522,-7402.059420,-79367.493593
1331.929814,740.205942,6661.853478,-78448.178995
1331.932379,-6661.853478,-10362.883188,-84576.942979
1331.934944,-1924.535449,-4145.153275,-80899.684589
1331.937509,-1628.453072,-148.041188,-78907.836294
1331.940074,-3701.029710,1776.494261,-76303.111601
1331.942639,-740.205942,-3256.906145,-77528.864398
1331.945204,-2664.741391,2368.659014,-76303.111601
1331.947769,-2516.700203,-2072.576638,-81818.999186
1331.950334,-148.041188,-2812.782580,-80899.684589
1331.952899,444.123565,5773.606348,-80440.027290
1331.955465,-2072.576638,5033.400406,-81206.122788
1331.958030,2072.576638,-2960.823768,-76609.549800
1331.960595,-4145.153275,-7846.182985,-75690.235202
1331.963160,-7105.977043,1332.370696,-76456.330700
1331.965725,-3552.988522,-5033.400406,-80899.684589
1331.968290,-3552.988522,7402.059420,-79827.150892
1331.970856,-4737.318029,-3404.947333,-83810.847481
1331.973421,-2812.782580,-5773.606348,-79214.274493
1331.975986,-740.205942,-2368.659014,-77222.426198
1331.978551,-5033.400406,-2220.617826,-74924.139704
1331.981116,-2368.659014,1332.370696,-76303.111601
1331.983682,-2368.659014,148.041188,-78601.398095
1331.986247,1036.288319,-5921.647536,-83657.628382
1331.988812,-3256.906145,-2960.823768,-81052.903688
1331.991377,148.041188,11399.171507,-77835.302597
1331.993942,8586.388927,1628.453072,-78601.398095
1331.996507,4737.318029,5477.523971,-74004.825107
1331.999073,-1776.494261,8142.265362,-77682.083497
1332.001638,-6365.771101,-13323.706956,-81665.780087
1332.004203,3404.947333,7254.018232,-78141.740796
1332.006768,148.041188,7254.018232,-81665.780087
1332.009333,7846.182985,7846.182985,-80133.589091
1332.011899,5921.647536,2516.700203,-78141.740796
1332.014464,444.123565,-7254.018232,-79214.274493
1332.017029,888.247130,7846.182985,-76149.892501
1332.019594,3108.864956,5329.482782,-78601.398095
1332.022159,6661.853478,11843.295072,-77528.864398
1332.024725,4293.194464,1776.494261,-81052.903688
1332.027290,2368.659014,1480.411884,-79827.150892
1332.029855,1184.329507,3256.906145,-81206.122788
1332.032420,-444.123565,1628.453072,-79061.055394
1332.034985,3552.988522,6661.853478,-75690.235202
1332.037550,296.082377,1480.411884,-76456.330700
1332.040116,592.164754,-1924.535449,-78754.617194
1332.042681,-148.041188,5625.565159,-79827.150892
1332.045246,6661.853478,8586.388927,-80593.246390
1332.047811,5181.441594,7402.059420,-80286.808190
1332.050376,6217.729913,9918.759623,-77988.521696
1332.052941,4885.359217,-2812.782580,-79520.712692
1332.055506,1628.453072,5181.441594,-75690.235202
1332.058070,-3404.947333,3256.906145,-77069.207099
1332.060635,592.164754,4885.359217,-78754.617194
1332.063199,5625.565159,10362.883188,-81512.560987
1332.065764,11251.130318,-296.082377,-82891.532884
1332.068328,4293.194464,1480.411884,-79061.055394
1332.070893,-3997.112087,592.164754,-76915.987999
1332.073458,-9622.677246,-2368.659014,-76303.111601
1332.076022,444.123565,3849.070898,-76915.987999
1332.078587,2664.741391,-10362.883188,-80746.465489
1332.081151,-444.123565,9622.677246,-79061.055394
1332.083716,1628.453072,4885.359217,-83657.628382
1332.086281,-3552.988522,-2812.782580,-79673.931792
1332.088845,-5181.441594,3108.864956,-76609.549800
1332.091410,-11547.212695,-11547.212695,-76456.330700
1332.093974,-592.164754,592.164754,-74464.482406
1332.096539,-592.164754,-148.041188,-80440.027290
1332.099104,-2368.659014,-3256.906145,-82278.656485
1332.101668,-5033.400406,2368.659014,-80746.465489
1332.104233,-3849.070898,-2220.617826,-80899.684589
1332.106797,-3108.864956,-2812.782580,-76149.892501
1332.109362,-444.123565,444.123565,-73851.606007
1332.111927,-1924.535449,-2960.823768,-76456.330700
1332.114491,2072.576638,-592.164754,-79214.274493
1332.117056,-2516.700203,148.041188,-81052.903688
1332.119620,1776.494261,3849.070898,-81512.560987
1332.122185,-3108.864956,5033.400406,-79980.369991
1332.124749,-740.205942,-1924.535449,-76915.987999
1332.127314,-1628.453072,-4885.359217,-75537.016103
1332.129879,-7402.059420,-5921.647536,-76915.987999
1332.132443,-3849.070898,-2516.700203,-77988.521696
1332.135008,-7698.141797,2368.659014,-80133.589091
1332.137572,-1036.288319,592.164754,-82738.313784
1332.140137,-4885.359217,-6513.812290,-80899.684589
1332.142702,-1628.453072,444.123565,-77375.645298
1332.145266,-5773.606348,-5921.647536,-77835.302597
1332.147831,-4441.235652,148.041188,-76609.549800
1332.150395,-740.205942,-4885.359217,-79061.055394
1332.152960,-3108.864956,6957.935855,-80746.465489
1332.155524,1184.329507,-4145.153275,-83964.066581
1332.158089,2812.782580,4441.235652,-78754.617194
1332.160653,3701.029710,12879.583391,-78754.617194
1332.163217,5477.523971,-4293.194464,-77069.207099
1332.165781,-2812.782580,8882.471304,-70940.443115
1332.168346,-6069.688724,-5773.606348,-83044.751983
1332.170910,5477.523971,-592.164754,-79367.493593
1332.173474,6957.935855,15988.448347,-79827.150892
1332.176039,2812.782580,6809.894666,-80440.027290
1332.178603,1332.370696,740.205942,-79827.150892
1332.181167,2220.617826,2368.659014,-75690.235202
1332.183731,-2368.659014,-1628.453072,-77988.521696
1332.186296,6069.688724,10066.800811,-76609.549800
1332.188860,3701.029710,8438.347739,-79520.712692
1332.191424,4589.276840,3552.988522,-82585.094684
1332.193988,3701.029710,2812.782580,-80133.589091
1332.196553,-3701.029710,2516.700203,-79367.493593
1332.199117,1184.329507,1628.453072,-76762.768900
1332.201681,-592.164754,592.164754,-76762.768900
1332.204246,1628.453072,888.247130,-76762.768900
1332.206810,1036.288319,-592.164754,-81052.903688
1332.209374,4145.153275,8734.430116,-80899.684589
1332.211938,6365.771101,9474.636058,-81052.903688
1332.214503,5477.523971,5625.565159,-79214.274493
1332.217067,4885.359217,5181.441594,-77069.207099
1332.219631,-296.082377,0.000000,-76762.768900
1332.222196,-3849.070898,7402.059420,-76762.768900
1332.224760,4737.318029,-740.205942,-81206.122788
1332.227324,5477.523971,1924.535449,-81052.903688
1332.229888,8882.471304,13619.789333,-79214.274493
1332.232453,-444.123565,1332.370696,-81206.122788
1332.235017,-2664.741391,-3256.906145,-76609.549800
1332.237581,-5181.441594,-2220.617826,-75383.797003
1332.240146,-11251.130318,2072.576638,-77069.207099
1332.242710,6069.688724,-148.041188,-80593.246390
1332.245274,7254.018232,-2664.741391,-81972.218286
1332.247838,4737.318029,10955.047942,-81052.903688
1332.250403,-7846.182985,-7550.100608,-80133.589091
1332.252967,-7994.224174,3701.029710,-75230.577904
1332.255531,-4589.276840,-5625.565159,-77069.207099
1332.258096,592.164754,-7402.059420,-77222.426198
1332.260660,2812.782580,5329.482782,-78294.959896
1332.263224,-5477.523971,-5625.565159,-84730.162079
1332.265789,-4145.153275,888.247130,-80133.589091
1332.268353,-5033.400406,-296.082377,-80286.808190
1332.270917,-2072.576638,-4737.318029,-77528.864398
1332.273482,740.205942,148.041188,-74464.482406
1332.276046,-1628.453072,-592.164754,-77682.083497
1332.278611,1332.370696,740.205942,-80440.027290
1332.281175,148.041188,-1036.288319,-81972.218286
1332.283739,2072.576638,3108.864956,-79673.931792
1332.286304,-3552.988522,4589.276840,-79061.055394
1332.288868,-1184.329507,-4441.235652,-76149.892501
1332.291432,-5181.441594,-7105.977043,-75537.016103
1332.293997,-8290.306550,-2368.659014,-78907.836294
1332.296561,1480.411884,-3701.029710,-80440.027290
1332.299126,-3997.112087,3256.906145,-81052.903688
1332.301690,-3849.070898,-444.123565,-81052.903688
1332.304254,-1332.370696,-5181.441594,-79520.712692
1332.306819,-2664.741391,-5329.482782,-75537.016103
1332.309383,-5773.606348,740.205942,-75077.358804
1332.311947,-6661.853478,-5033.400406,-79367.493593
1332.314512,-148.041188,8586.388927,-78754.617194
1332.317076,1332.370696,-4589.276840,-84270.504780
1332.319641,7105.977043,3552.988522,-78907.836294
1332.322205,3997.112087,16580.613101,-78907.836294
1332.324769,2368.659014,-9622.677246,-79673.931792
1332.327334,-1776.494261,10066.800811,-70787.224015
1332.329898,-6809.894666,-9326.594869,-82431.875585
1332.332462,7402.059420,6217.729913,-77375.645298
1332.335027,8142.265362,11991.336260,-81665.780087
1332.337591,6365.771101,6513.812290,-81359.341888
1332.340156,888.247130,740.205942,-79673.931792
1332.342720,1924.535449,-444.123565,-75537.016103
1332.345284,1332.370696,0.000000,-77222.426198
1332.347849,3404.947333,6957.935855,-77069.207099
1332.350413,4293.194464,11251.130318,-78601.398095
1332.352977,740.205942,1480.411884,-83810.847481
1332.355542,4441.235652,4737.318029,-79061.055394
1332.358106,-296.082377,1924.535449,-79827.150892
1332.360670,296.082377,-1776.494261,-76456.330700
1332.363234,444.123565,2220.617826,-75690.235202
1332.365798,-148.041188,1332.370696,-78754.617194
1332.368362,3404.947333,3552.988522,-80746.465489
1332.370926,3701.029710,10066.800811,-80746.465489
1332.373490,9326.594869,6661.853478,-81052.903688
1332.376053,5921.647536,9622.677246,-78141.740796
1332.378617,5033.400406,1628.453072,-78601.398095
1332.381181,888.247130,-2664.741391,-76456.330700
1332.383745,-592.164754,2664.741391,-78448.178995
1332.386309,2516.700203,10066.800811,-80440.027290
1332.388873,6513.812290,11251.130318,-81818.999186
1332.391437,5625.565159,3256.906145,-80440.027290
1332.394001,148.041188,-2220.617826,-78601.398095
1332.396565,-3552.988522,-6365.771101,-76915.987999
1332.399129,-4145.153275,2220.617826,-75690.235202
1332.401692,1628.453072,-4737.318029,-80133.589091
1332.404256,-444.123565,5625.565159,-79214.274493
1332.406820,4737.318029,6513.812290,-83657.628382
1332.409384,-1776.494261,-3108.864956,-79980.369991
1332.411948,-4145.153275,1628.453072,-77375.645298
1332.414512,-10807.006753,-11251.130318,-77835.302597
1332.417076,0.000000,-444.123565,-74311.263306
1332.419640,148.041188,-3108.864956,-80133.589091
1332.422204,444.123565,444.123565,-81972.218286
1332.424768,-5477.523971,3256.906145,-83504.409282
1332.427331,-3552.988522,-6069.688724,-81206.122788
1332.429895,-4589.276840,3552.988522,-75230.577904
1332.432459,-444.123565,-5181.441594,-76609.549800
1332.435023,296.082377,-2812.782580,-75230.577904
1332.437587,-2220.617826,-296.082377,-78601.398095
1332.440151,-2960.823768,5033.400406,-83351.190182
1332.442715,444.123565,4885.359217,-83657.628382
1332.445279,-148.041188,1036.288319,-79367.493593
1332.447843,-4589.276840,-7254.018232,-76762.768900
1332.450407,-5625.565159,-4293.194464,-73851.606007
1332.452970,-7994.224174,-7254.018232,-77682.083497
1332.455534,-1628.453072,592.164754,-80133.589091
1332.458098,-2664.741391,-740.205942,-83351.190182
1332.460662,2664.741391,888.247130,-82278.656485
1332.463226,-5033.400406,-3701.029710,-79827.150892
1332.465790,-4293.194464,-3701.029710,-74924.139704
1332.468354,-8734.430116,-5921.647536,-74770.920605
1332.470917,2812.782580,-1184.329507,-77988.521696
1332.473481,-5181.441594,444.123565,-80593.246390
1332.476045,7994.224174,11695.253884,-82431.875585
1332.478609,11103.089130,740.205942,-83964.066581
1332.481172,-296.082377,9030.512492,-77069.207099
1332.483736,-2220.617826,5033.400406,-75843.454302
1332.486300,-7994.224174,-16284.530724,-76456.330700
1332.488864,4293.194464,14359.995275,-73238.729609
1332.491428,1628.453072,1480.411884,-85036.600278
1332.493991,7402.059420,6957.935855,-83657.628382
1332.496555,1628.453072,8882.471304,-80286.808190
1332.499119,-2664.741391,-2220.617826,-79520.712692
1332.501683,-148.041188,2516.700203,-74311.263306
1332.504246,5625.565159,4441.235652,-74617.701505
1332.506810,4293.194464,2368.659014,-77069.207099
1332.509374,4293.194464,12139.377449,-80746.465489
1332.511938,2220.617826,2812.782580,-84883.381178
1332.514502,3404.947333,1332.370696,-81052.903688
1332.517065,-1924.535449,1628.453072,-77375.645298
1332.519629,296.082377,888.247130,-74158.044206
1332.522193,740.205942,1480.411884,-75383.797003
1332.524757,2812.782580,3256.906145,-79214.274493
1332.527320,2812.782580,7402.059420,-82585.094684
1332.529884,9030.512492,7550.100608,-82891.532884
1332.532448,5181.441594,6661.853478,-78907.836294
1332.535012,5181.441594,8438.347739,-77528.864398
1332.537576,-4589.276840,-2516.700203,-75383.797003
1332.540139,5033.400406,6217.729913,-75537.016103
1332.542703,-1036.288319,1480.411884,-80286.808190
1332.545238,8882.471304,13471.748144,-79827.150892
1332.547773,-444.123565,9622.677246,-81359.341888
1332.550308,-2664.741391,-4589.276840,-80133.589091
1332.552843,-3701.029710,-4293.194464,-75383.797003
1332.555378,-10066.800811,-1776.494261,-75383.797003
1332.557913,3701.029710,-444.123565,-78448.178995
1332.560448,148.041188,-148.041188,-80899.684589
1332.562982,6365.771101,17616.901420,-80440.027290
1332.565517,-8142.265362,-11991.336260,-84883.381178
1332.568052,-5033.400406,8734.430116,-74158.044206
1332.570587,-10214.842000,-13175.665768,-77069.207099
1332.573122,-2960.823768,-9622.677246,-75537.016103
1332.575657,0.000000,5921.647536,-76762.768900
1332.578192,-4145.153275,-5181.441594,-85343.038477
1332.580727,-3256.906145,2072.576638,-81818.999186
1332.583262,-1332.370696,592.164754,-78448.178995
1332.585797,-2960.823768,-3256.906145,-76456.330700
1332.588332,2960.823768,-888.247130,-74617.701505
1332.590867,-2368.659014,-444.123565,-75077.358804
1332.593401,-1924.535449,1184.329507,-80593.246390
1332.595936,-740.205942,3849.070898,-82431.875585
1332.598471,1924.535449,3256.906145,-82278.656485
1332.601006,-2072.576638,-1332.370696,-78448.178995
1332.603541,-4737.318029,-9770.718434,-76456.330700
1332.606076,-5625.565159,-5625.565159,-74617.701505
1332.608611,-8290.306550,-740.205942,-77988.521696
1332.611146,-3108.864956,-444.123565,-80746.465489
1332.613681,1628.453072,3701.029710,-82278.656485
1332.616216,-2220.617826,-3552.988522,-81206.122788
1332.618751,-444.123565,-2072.576638,-77222.426198
1332.621286,-9474.636058,-10066.800811,-76149.892501
1332.623820,-1776.494261,-296.082377,-74924.139704
1332.626355,2368.659014,-3256.906145,-80899.684589
1332.628890,6217.729913,11399.171507,-79367.493593
1332.631425,7402.059420,14952.160028,-84117.285680
1332.633960,2220.617826,-6513.812290,-79980.369991
1332.636495,-5773.606348,14508.036463,-71859.757712
1332.639030,-9474.636058,-18061.024985,-81052.903688
1332.641565,7550.100608,5921.647536,-71706.538613
1332.644100,3849.070898,10362.883188,-81665.780087
1332.646645,7994.224174,4885.359217,-83351.190182
1332.649186,2516.700203,13027.624579,-79520.712692
1332.651726,-2812.782580,5625.565159,-77988.521696
1332.654267,-1924.535449,-7994.224174,-77222.426198
1332.656807,8142.265362,13619.789333,-71706.538613
1332.659348,3552.988522,1480.411884,-79520.712692
1332.661888,4589.276840,5773.606348,-81206.122788
1332.664428,1184.329507,6365.771101,-81818.999186
1332.666969,-592.164754,-2072.576638,-82278.656485
1332.669509,148.041188,5329.482782,-75690.235202
1332.672050,-2516.700203,2960.823768,-76609.549800
1332.674590,2664.741391,148.041188,-76456.330700
1332.677131,3701.029710,5773.606348,-77988.521696
1332.679671,3997.112087,12287.418637,-80593.246390
1332.682212,9474.636058,4589.276840,-83351.190182
1332.684752,2812.782580,7846.182985,-77375.645298
1332.687293,-3701.029710,2368.659014,-77069.207099
1332.689833,1332.370696,3256.906145,-75077.358804
1332.692374,1332.370696,1036.288319,-77682.083497
1332.694914,7994.224174,15396.283594,-79520.712692
1332.697455,5181.441594,2072.576638,-82891.532884
1332.699995,4145.153275,3849.070898,-78294.959896
1332.702536,-9622.677246,-3108.864956,-78754.617194
1332.705076,-8438.347739,-4293.194464,-77069.207099
1332.707617,1628.453072,2368.659014,-76303.111601
1332.710157,888.247130,-1776.494261,-80593.246390
1332.712698,3997.112087,13767.830521,-79673.931792
1332.715238,-5773.606348,-8438.347739,-83504.409282
1332.717778,-3404.947333,3552.988522,-75077.358804
1332.720319,-10214.842000,-10510.924376,-78754.617194
1332.722859,-1332.370696,-4145.153275,-73851.606007
1332.725400,-2812.782580,3256.906145,-78907.836294
1332.727940,-1924.535449,-4441.235652,-83504.409282
1332.730481,-2812.782580,-2072.576638,-81818.999186
1332.733021,-6217.729913,-1036.288319,-80593.246390
1332.735562,-4441.235652,-6217.729913,-76915.987999
1332.738102,-2516.700203,592.164754,-74311.263306
1332.740643,-444.123565,2664.741391,-76303.111601
1332.743183,-444.123565,-2220.617826,-81665.780087
1332.745724,-444.123565,4737.318029,-81665.780087
1332.748269,-1036.288319,2368.659014,-83197.971083
1332.750814,-1776.494261,-1628.453072,-79214.274493
1332.753360,-6217.729913,-3701.029710,-75537.016103
1332.755905,-4589.276840,-10955.047942,-75843.454302
1332.758451,-3404.947333,-6365.771101,-77988.521696
1332.760996,-1924.535449,3552.988522,-80440.027290
1332.763541,-1184.329507,1628.453072,-83810.847481
1332.766087,1480.411884,-3701.029710,-81206.122788
1332.768632,-8142.265362,-740.205942,-76762.768900
1332.771177,-7402.059420,-12139.377449,-76762.768900
1332.773723,-4737.318029,5477.523971,-72932.291410
1332.776268,148.041188,-1184.329507,-80593.246390
1332.778813,10658.965565,2516.700203,-80593.246390
1332.781359,5773.606348,22946.384202,-83504.409282
1332.783904,-444.123565,-592.164754,-82278.656485
1332.786449,-6957.935855,-7994.224174,-74158.044206
1332.788995,-4293.194464,4885.359217,-73698.386908
1332.791540,4737.318029,-3552.988522,-78754.617194
1332.794085,12879.583391,13323.706956,-79061.055394
1332.796631,5329.482782,12583.501014,-84117.285680
1332.799176,2516.700203,1628.453072,-84117.285680
1332.801722,-1924.535449,4737.318029,-74924.139704
1332.804267,-2072.576638,148.041188,-76609.549800
1332.806812,3404.947333,4589.276840,-74158.044206
1332.809358,7402.059420,4737.318029,-78907.836294
1332.811903,296.082377,5773.606348,-83504.409282
1332.814448,148.041188,3404.947333,-84423.723880
1332.816994,-296.082377,3256.906145,-79673.931792
1332.819539,740.205942,1480.411884,-75230.577904
1332.822084,-296.082377,740.205942,-73698.386908
1332.824630,4885.359217,4145.153275,-75537.016103
1332.827175,4589.276840,8734.430116,-80286.808190
1332.829720,8438.347739,4885.359217,-84423.723880
1332.832266,8438.347739,7846.182985,-81206.122788
1332.834811,-4293.194464,5773.606348,-76149.892501
1332.837356,888.247130,5477.523971,-76609.549800
1332.839902,1628.453072,-3701.029710,-76303.111601
1332.842447,7550.100608,16284.530724,-76456.330700
1332.844993,1924.535449,592.164754,-85649.476676
1332.847538,1184.329507,3701.029710,-79827.150892
1332.850087,-5625.565159,1924.535449,-79980.369991
1332.852636,-7254.018232,-6217.729913,-77528.864398
1332.855184,2368.659014,-1924.535449,-74464.482406
1332.857733,-5181.441594,1776.494261,-77988.521696
1332.860282,6069.688724,7254.018232,-81665.780087
1332.862831,-4145.153275,-8438.347739,-83657.628382
1332.865380,-3701.029710,7402.059420,-75996.673402
1332.867928,-11547.212695,-10214.842000,-79367.493593
1332.870477,-148.041188,-2072.576638,-73238.729609
1332.873026,-5329.482782,-3404.947333,-78754.617194
1332.875575,-1480.411884,-740.205942,-80440.027290
1332.878124,-3997.112087,3701.029710,-82278.656485
1332.880672,-2072.576638,-2220.617826,-82431.875585
1332.883221,-6217.729913,-2220.617826,-77528.864398
1332.885770,-2368.659014,-1776.494261,-74924.139704
1332.888319,-444.123565,-296.082377,-75537.016103
1332.890868,1184.329507,1480.411884,-81052.903688
1332.893416,-1628.453072,5329.482782,-81972.218286
1332.895965,-2960.823768,-444.123565,-84270.504780
1332.898514,-5625.565159,-2516.700203,-78907.836294
1332.901063,-6365.771101,-4441.235652,-76303.111601
1332.903612,-7846.182985,-8142.265362,-73698.386908
1332.906160,-4589.276840,-2812.782580,-76762.768900
1332.908709,-2368.659014,-3552.988522,-80746.465489
1332.911258,-1924.535449,3108.864956,-82278.656485
1332.913807,-3108.864956,4885.359217,-80286.808190
1332.916356,-7402.059420,-12287.418637,-79214.274493
1332.918905,-3997.112087,2516.700203,-72166.195912
1332.921453,-4145.153275,-8882.471304,-76456.330700
1332.924002,5773.606348,11991.336260,-77069.207099
1332.926551,8586.388927,10658.965565,-85036.600278
1332.929100,7994.224174,740.205942,-81818.999186
1332.931649,-2812.782580,14359.995275,-77069.207099
1332.934197,-8438.347739,-19097.313304,-79827.150892
1332.936746,3404.947333,10066.800811,-68642.156621
1332.939295,-296.082377,7402.059420,-81052.903688
1332.941844,7846.182985,6365.771101,-83197.971083
1332.944393,8438.347739,6217.729913,-82891.532884
1332.946941,-1628.453072,5181.441594,-79827.150892
1332.949490,-1480.411884,-592.164754,-77069.207099
1332.952042,296.082377,8290.306550,-71706.538613
1332.954595,4885.359217,3997.112087,-76915.987999
1332.957147,3701.029710,3552.988522,-81052.903688
1332.959699,2812.782580,7550.100608,-81972.218286
1332.962251,-1036.288319,0.000000,-84883.381178
1332.964803,1036.288319,888.247130,-78141.740796
1332.967355,1480.411884,1628.453072,-74770.920605
1332.969907,3108.864956,7698.141797,-74770.920605
1332.972459,2664.741391,3108.864956,-80593.246390
1332.975012,4589.276840,8586.388927,-81512.560987
1332.977564,6661.853478,8438.347739,-83044.751983
1332.980116,148.041188,1036.288319,-79673.931792
1332.982668,3997.112087,13471.748144,-75077.358804
1332.985220,592.164754,-5033.400406,-78141.740796
1332.987772,6217.729913,3997.112087,-75996.673402
1332.990324,-1184.329507,12287.418637,-80593.246390
1332.992877,-3552.988522,592.164754,-83504.409282
1332.995429,296.082377,-444.123565,-78601.398095
1332.997981,2516.700203,-3849.070898,-75230.577904
1333.000533,-2516.700203,2664.741391,-76149.892501
1333.003085,-1036.288319,-3997.112087,-81818.999186
1333.005637,-1628.453072,10510.924376,-77682.083497
1333.008189,-3701.029710,-5181.441594,-84423.723880
1333.010742,-3849.070898,1036.288319,-75537.016103
1333.013294,-3256.906145,-3108.864956,-77069.207099
1333.015846,-3701.029710,-11695.253884,-75843.454302
1333.018398,-4293.194464,1036.288319,-76303.111601
1333.020950,-7105.977043,0.000000,-82891.532884
1333.023502,-2516.700203,-2368.659014,-85036.600278
1333.026054,1924.535449,-1332.370696,-78448.178995
1333.028607,-740.205942,-1036.288319,-74924.139704
1333.031159,-3552.988522,-4737.318029,-75843.454302
1333.033711,-1184.329507,2516.700203,-75230.577904
1333.036263,0.000000,2664.741391,-82585.094684
1333.038815,-1036.288319,2812.782580,-82431.875585
1333.041367,-5033.400406,-2220.617826,-82585.094684
1333.043919,-6069.688724,-3404.947333,-77988.521696
1333.046471,-7105.977043,-9326.594869,-75996.673402
1333.049024,-6661.853478,-1036.288319,-72625.853210
1333.051576,592.164754,2220.617826,-79673.931792
1333.054102,-2812.782580,-3256.906145,-83964.066581
1333.056628,0.000000,4145.153275,-82125.437386
1333.059154,-7550.100608,-10955.047942,-80899.684589
1333.061680,-4589.276840,2960.823768,-73085.510509
1333.064206,-4293.194464,-8882.471304,-75077.358804
1333.066732,3404.947333,11399.171507,-74770.920605
1333.069258,7994.224174,7698.141797,-85189.819378
1333.071784,4885.359217,1036.288319,-82278.656485
1333.074310,-2516.700203,13767.830521,-75537.016103
1333.076836,-5477.523971,-9474.636058,-79980.369991
1333.079362,5181.441594,2960.823768,-69867.909418
1333.081888,3997.112087,11547.212695,-78141.740796
1333.084415,5033.400406,1924.535449,-83810.847481
1333.086941,4441.235652,9622.677246,-83964.066581
1333.089467,296.082377,1628.453072,-81665.780087
1333.091993,1776.494261,3552.988522,-77375.645298
1333.094519,2072.576638,7105.977043,-72779.072310
1333.097045,4737.318029,148.041188,-75690.235202
1333.099571,3108.864956,3701.029710,-79061.055394
1333.102097,2072.576638,3701.029710,-83197.971083
1333.104623,0.000000,2664.741391,-83044.751983
1333.107149,1924.535449,2368.659014,-78294.959896
1333.109675,4293.194464,-888.247130,-74311.263306
1333.112201,6661.853478,4589.276840,-72932.291410
1333.114727,2960.823768,9474.636058,-78754.617194
1333.117253,5033.400406,4145.153275,-84117.285680
1333.119779,3256.906145,10807.006753,-82125.437386
1333.122305,4293.194464,7846.182985,-80899.684589
1333.124831,0.000000,3404.947333,-74311.263306
1333.127358,8438.347739,12879.583391,-71706.538613
1333.129884,740.205942,-4145.153275,-81512.560987
1333.132410,0.000000,1184.329507,-79827.150892
1333.134936,-5921.647536,7698.141797,-81359.341888
1333.137462,-3552.988522,740.205942,-81512.560987
1333.139988,8734.430116,-2072.576638,-76609.549800
1333.142514,-4885.359217,-2072.576638,-76149.892501
1333.145040,1036.288319,4589.276840,-78141.740796
1333.147566,-5773.606348,-7105.977043,-80746.465489
1333.150092,-1480.411884,2072.576638,-80593.246390
1333.152618,-7550.100608,-5329.482782,-81052.903688
1333.155152,0.000000,-296.082377,-75077.358804
1333.157685,-3108.864956,-2220.617826,-75843.454302
1333.160219,-1628.453072,-4589.276840,-79367.493593
1333.162753,-4737.318029,-2516.700203,-79980.369991
1333.165286,-3108.864956,-296.082377,-82431.875585
1333.167820,-888.247130,-2220.617826,-80133.589091
1333.170354,-444.123565,-2516.700203,-77375.645298
1333.172887,-1628.453072,2516.700203,-74617.701505
1333.175421,-1480.411884,-740.205942,-78448.178995
1333.177955,-444.123565,2812.782580,-79827.150892
1333.180488,-5033.400406,-1332.370696,-83197.971083
1333.183022,-2960.823768,-5921.647536,-81052.903688
1333.185556,-7550.100608,-5477.523971,-77682.083497
1333.188089,-5033.400406,-3997.112087,-75843.454302
1333.190623,-2960.823768,-2664.741391,-76303.111601
1333.193157,-1184.329507,2516.700203,-79673.931792
1333.195690,-888.247130,-3404.947333,-83810.847481
1333.198224,-6069.688724,-5181.441594,-82125.437386
1333.200757,-4145.153275,2812.782580,-77988.521696
1333.203291,-5477.523971,-11103.089130,-76915.987999
1333.205825,5329.482782,11991.336260,-70940.443115
1333.208358,5329.482782,11251.130318,-83197.971083
1333.210892,4737.318029,-6365.771101,-83044.751983
1333.213426,-3552.988522,16876.695478,-78754.617194
1333.215959,-8142.265362,-13619.789333,-84423.723880
1333.218493,5625.565159,7550.100608,-70787.224015
1333.221027,2960.823768,10066.800811,-76915.987999
1333.223560,8142.265362,444.123565,-79827.150892
1333.226094,6513.812290,8142.265362,-80440.027290
1333.228628,-1036.288319,1628.453072,-84730.162079
1333.231161,-1184.329507,6217.729913,-79827.150892
1333.233695,3997.112087,11695.253884,-73238.729609
1333.236229,7254.018232,1184.329507,-76609.549800
1333.238762,2516.700203,1036.288319,-77988.521696
1333.241296,-592.164754,4737.318029,-80899.684589
1333.243830,-2368.659014,1628.453072,-84270.504780
1333.246363,3256.906145,3404.947333,-80593.246390
1333.248897,5921.647536,3552.988522,-77222.426198
1333.251431,4145.153275,7254.018232,-73698.386908
1333.253964,4145.153275,7846.182985,-76303.111601
1333.256505,6365.771101,6069.688724,-80440.027290
1333.259045,5033.400406,1480.411884,-82585.094684
1333.261585,1036.288319,10658.965565,-79673.931792
1333.264126,5773.606348,7846.182985,-79827.150892
1333.266666,8438.347739,1924.535449,-75537.016103
1333.269206,-1628.453072,9326.594869,-76915.987999
1333.271747,-6217.729913,-6957.935855,-81512.560987
1333.274287,-2664.741391,2812.782580,-77988.521696
1333.276828,-4589.276840,-1036.288319,-80899.684589
1333.279368,6217.729913,2072.576638,-78448.178995
1333.281908,3108.864956,-2812.782580,-77988.521696
1333.284449,-5625.565159,4737.318029,-75843.454302
1333.286989,-8142.265362,-5625.565159,-81665.780087
1333.289529,-5181.441594,-888.247130,-77375.645298
1333.292070,-740.205942,148.041188,-79214.274493
1333.294610,-3701.029710,-7402.059420,-77375.645298
1333.297150,-1332.370696,1628.453072,-76915.987999
1333.299691,-5773.606348,-4885.359217,-81206.122788
1333.302231,-3997.112087,-5921.647536,-80593.246390
1333.304772,-5329.482782,4441.235652,-79061.055394
1333.307312,-4589.276840,-1776.494261,-79980.369991
1333.309852,1480.411884,-1480.411884,-76149.892501
1333.312393,1184.329507,-592.164754,-77222.426198
1333.314933,-2072.576638,1184.329507,-79520.712692
1333.317473,-5329.482782,740.205942,-81512.560987
1333.320014,-888.247130,-8290.306550,-82125.437386
1333.322554,-10658.965565,-888.247130,-77069.207099
1333.325095,-4293.194464,-4145.153275,-79367.493593
1333.327635,-1628.453072,-4293.194464,-73851.606007
1333.330175,888.247130,148.041188,-78448.178995
1333.332716,-5921.647536,-1480.411884,-80593.246390
1333.335256,-3404.947333,-8882.471304,-83044.751983
1333.337796,-5329.482782,6513.812290,-77222.426198
1333.340337,-1480.411884,-7994.224174,-79520.712692
1333.342877,6661.853478,9030.512492,-72012.976812
1333.345418,4737.318029,12435.459826,-79520.712692
1333.347958,6957.935855,-5921.647536,-81512.560987
1333.350498,-3404.947333,11103.089130,-76303.111601
1333.353039,-8290.306550,-8734.430116,-84117.285680
1333.355579,3997.112087,5625.565159,-74004.825107
1333.358125,4145.153275,14656.077652,-78448.178995
1333.360672,9770.718434,1036.288319,-79520.712692
1333.363218,3256.906145,-2220.617826,-81052.903688
1333.365764,-592.164754,7994.224174,-78448.178995
1333.368311,-2368.659014,444.123565,-80899.684589
1333.370857,3256.906145,10066.800811,-74617.701505
1333.373403,6513.812290,6957.935855,-78141.740796
1333.375950,2072.576638,444.123565,-80593.246390
1333.378496,3849.070898,3404.947333,-78907.836294
1333.381042,-2812.782580,1480.411884,-81359.341888
1333.383588,888.247130,2368.659014,-78448.178995
1333.386135,4145.153275,7254.018232,-76303.111601
1333.388681,6069.688724,7550.100608,-76456.330700
1333.391227,7402.059420,3256.906145,-80593.246390
1333.393774,1480.411884,5329.482782,-80440.027290
1333.396320,1480.411884,11103.089130,-80133.589091
1333.398866,1184.329507,-296.082377,-80440.027290
1333.401413,7402.059420,12731.542202,-75383.797003
1333.403959,3256.906145,2516.700203,-79214.274493
1333.406505,740.205942,592.164754,-77835.302597
1333.409052,-7402.059420,592.164754,-80286.808190
1333.411598,-7550.100608,1480.411884,-80593.246390
1333.414144,1480.411884,-1776.494261,-80133.589091
1333.416691,3108.864956,1628.453072,-76915.987999
1333.419237,740.205942,9918.759623,-75843.454302
1333.421783,-10658.965565,-12731.542202,-83197.971083
1333.424329,-3701.029710,2220.617826,-76915.987999
1333.426876,-6217.729913,-7402.059420,-81818.999186
1333.429422,3997.112087,-2220.617826,-76915.987999
1333.431968,-2368.659014,2960.823768,-77069.207099
1333.434515,-5329.482782,-5329.482782,-78601.398095
1333.437061,-6217.729913,-1184.329507,-78448.178995
1333.439607,-3997.112087,-4145.153275,-80133.589091
1333.442154,1628.453072,148.041188,-79214.274493
1333.444700,-444.123565,-592.164754,-78448.178995
1333.447246,-2516.700203,3108.864956,-76456.330700
1333.449793,0.000000,-1628.453072,-79827.150892
1333.452339,-2220.617826,592.164754,-78141.740796
1333.454885,-7254.018232,-3404.947333,-82585.094684
1333.457431,-6957.935855,-10214.842000,-79367.493593
1333.459982,-5181.441594,-1184.329507,-77222.426198
1333.462533,-2812.782580,-1480.411884,-77988.521696
1333.465083,-1036.288319,148.041188,-77069.207099
1333.467634,-3552.988522,592.164754,-79827.150892
1333.470184,-4293.194464,-7254.018232,-82431.875585
1333.472735,-6809.894666,-2368.659014,-78448.178995
1333.475286,2072.576638,6513.812290,-78448.178995
1333.477836,4441.235652,-1776.494261,-77682.083497
1333.480387,6957.935855,24278.754898,-76303.111601
1333.482937,2072.576638,-10955.047942,-83810.847481
1333.485488,-1924.535449,1628.453072,-74924.139704
1333.488038,-5033.400406,2368.659014,-80593.246390
1333.490589,4441.235652,-1628.453072,-77222.426198
1333.493140,7402.059420,20429.683999,-75996.673402
1333.495690,3997.112087,3849.070898,-83504.409282
1333.498241,4441.235652,-7105.977043,-84117.285680
1333.500791,2516.700203,8734.430116,-74770.920605
1333.503342,-3849.070898,5033.400406,-78141.740796
1333.505892,5477.523971,2516.700203,-75996.673402
1333.508443,7698.141797,9326.594869,-75537.016103
1333.510994,-1628.453072,-1036.288319,-83657.628382
1333.513544,1184.329507,3404.947333,-80746.465489
1333.516095,740.205942,5033.400406,-80286.808190
1333.518645,-740.205942,3997.112087,-77222.426198
1333.521196,8882.471304,7254.018232,-74311.263306
1333.523747,7550.100608,2516.700203,-77375.645298
1333.526297,2516.700203,5033.400406,-78601.398095
1333.528848,1480.411884,11695.253884,-82125.437386
1333.531398,1924.535449,888.247130,-81512.560987
1333.533949,4737.318029,15988.448347,-76303.111601
1333.536499,1776.494261,740.205942,-79214.274493
1333.539050,6217.729913,-888.247130,-74617.701505
1333.541601,-5181.441594,1480.411884,-77528.864398
1333.544151,-6217.729913,-1924.535449,-81818.999186
1333.546702,740.205942,1184.329507,-80286.808190
1333.549252,-148.041188,592.164754,-80440.027290
1333.551803,3849.070898,7994.224174,-77988.521696
1333.554353,-4737.318029,-6069.688724,-78141.740796
1333.556904,-3849.070898,-3701.029710,-75537.016103
1333.559455,-10658.965565,-5477.523971,-79061.055394
1333.562009,1628.453072,-3404.947333,-79520.712692
1333.564564,148.041188,3404.947333,-78601.398095
1333.567118,-2516.700203,-2812.782580,-81359.341888
1333.569673,-4441.235652,296.082377,-77835.302597
1333.572227,-7698.141797,-2368.659014,-80593.246390
1333.574781,-148.041188,-5625.565159,-77988.521696
1333.577336,296.082377,-1036.288319,-78141.740796
1333.579890,888.247130,2516.700203,-77528.864398
1333.582445,-2664.741391,1332.370696,-80133.589091
1333.584999,-1036.288319,-4293.194464,-81665.780087
1333.587554,-8290.306550,4589.276840,-79520.712692
1333.590108,-8142.265362,-8586.388927,-80899.684589
1333.592663,-3701.029710,-10955.047942,-75383.797003
1333.595217,-3256.906145,2516.700203,-76609.549800
1333.597772,-5625.565159,-5773.606348,-80440.027290
1333.600326,-740.205942,3849.070898,-78141.740796
1333.602881,-1776.494261,-1924.535449,-81052.903688
1333.605435,-8438.347739,-2220.617826,-78907.836294
1333.607990,3256.906145,-1036.288319,-77988.521696
1333.610544,5329.482782,1924.535449,-74924.139704
1333.613099,3849.070898,18949.272115,-78294.959896
1333.615653,5921.647536,-5329.482782,-81665.780087
1333.618208,-1036.288319,2960.823768,-76149.892501
1333.620762,-3404.947333,-1184.329507,-81972.218286
1333.623317,3256.906145,1776.494261,-76915.987999
1333.625871,6957.935855,17172.777854,-77682.083497
1333.628425,4441.235652,9918.759623,-80133.589091
1333.630980,1776.494261,-5625.565159,-83657.628382
1333.633534,5033.400406,8290.306550,-75537.016103
1333.636089,-1332.370696,2812.782580,-80440.027290
1333.638643,3849.070898,7846.182985,-77069.207099
1333.641198,7254.018232,7105.977043,-77069.207099
1333.643752,-148.041188,-740.205942,-81972.218286
1333.646307,2516.700203,4589.276840,-78907.836294
1333.648861,-1480.411884,1924.535449,-80593.246390
1333.651416,3701.029710,5625.565159,-77682.083497
1333.653970,8586.388927,2664.741391,-76456.330700
1333.656525,4441.235652,7846.182985,-75537.016103
1333.659079,3404.947333,6069.688724,-80899.684589
1333.661634,-1924.535449,10510.924376,-80286.808190
1333.664191,4885.359217,5329.482782,-81512.560987
1333.666748,2220.617826,3997.112087,-77069.207099
1333.669305,1776.494261,8142.265362,-76915.987999
1333.671862,148.041188,296.082377,-78141.740796
1333.674419,-3256.906145,-4145.153275,-78754.617194
1333.676976,-7402.059420,592.164754,-78907.836294
1333.679534,-1184.329507,-592.164754,-81359.341888
1333.682091,3256.906145,-444.123565,-79827.150892
1333.684648,2072.576638,10362.883188,-77528.864398
1333.687205,-10362.883188,-11843.295072,-79673.931792
1333.689762,-4589.276840,4145.153275,-73698.386908
1333.692319,-9770.718434,-12139.377449,-81818.999186
1333.694877,-1184.329507,3256.906145,-76456.330700
1333.697434,-296.082377,-296.082377,-80440.027290
1333.699991,-2220.617826,-2516.700203,-79214.274493
1333.702548,-1332.370696,-1480.411884,-78294.959896
1333.705105,-7105.977043,-7550.100608,-80440.027290
1333.707662,-444.123565,1776.494261,-76456.330700
1333.710220,1332.370696,1184.329507,-78448.178995
1333.712777,-444.123565,148.041188,-77988.521696
1333.715334,-592.164754,-1480.411884,-80746.465489
1333.717891,-10362.883188,-2368.659014,-79061.055394
1333.720448,-4885.359217,-2664.741391,-80746.465489
1333.723005,-6365.771101,-11399.171507,-78141.740796
1333.725563,-3256.906145,2664.741391,-75383.797003
1333.728120,-4145.153275,-1480.411884,-79673.931792
1333.730677,-444.123565,-3701.029710,-78907.836294
1333.733234,-3552.988522,-148.041188,-79367.493593
1333.735791,-8586.388927,-1332.370696,-80593.246390
1333.738348,592.164754,-4737.318029,-79367.493593
1333.740906,2516.700203,8882.471304,-74770.920605
1333.743463,5181.441594,14359.995275,-80440.027290
1333.746020,6513.812290,-4885.359217,-79520.712692
1333.748577,-4589.276840,9770.718434,-75230.577904
1333.751134,-3552.988522,-9474.636058,-82431.875585
1333.753691,6217.729913,4145.153275,-75230.577904
1333.756249,3849.070898,17468.860231,-79061.055394
1333.758806,5921.647536,-1776.494261,-82891.532884
1333.761363,5181.441594,-1480.411884,-80286.808190
1333.763920,4293.194464,8734.430116,-77682.083497
1333.766480,-5477.523971,-2368.659014,-79061.055394
1333.769039,8142.265362,16432.571912,-73391.948708
1333.771599,-2368.659014,296.082377,-79214.274493
1333.774159,2368.659014,444.123565,-81052.903688
1333.776718,2220.617826,5033.400406,-80899.684589
1333.779278,-148.041188,4589.276840,-80593.246390
1333.781838,3256.906145,5033.400406,-77988.521696
1333.784397,5773.606348,5033.400406,-75077.358804
1333.786957,7105.977043,6957.935855,-74924.139704
1333.789517,5033.400406,6809.894666,-79827.150892
1333.792076,1924.535449,5625.565159,-80286.808190
1333.794636,5477.523971,10658.965565,-81206.122788
1333.797196,3256.906145,2812.782580,-80440.027290
1333.799755,3108.864956,5625.565159,-76149.892501
1333.802315,-3256.906145,1924.535449,-76303.111601
1333.804875,-3108.864956,-5477.523971,-78448.178995
1333.807434,-3404.947333,444.123565,-77528.864398
1333.809994,1332.370696,2664.741391,-81818.999186
1333.812554,3552.988522,-3849.070898,-81818.999186
1333.815113,-1924.535449,7994.224174,-75843.454302
1333.817673,-7254.018232,-6957.935855,-79520.712692
1333.820233,-8290.306550,-4293.194464,-76303.111601
1333.822792,-3404.947333,-3256.906145,-77988.521696
1333.825352,-1776.494261,-3701.029710,-78601.398095
1333.827912,-148.041188,2072.576638,-80899.684589
1333.830471,-3552.988522,-2368.659014,-79673.931792
1333.833031,-4885.359217,-3552.988522,-79673.931792
1333.835591,-3256.906145,-1332.370696,-76762.768900
1333.838150,-1184.329507,-1480.411884,-77528.864398
1333.840710,148.041188,444.123565,-77682.083497
1333.843270,-2664.741391,0.000000,-80286.808190
1333.845829,-6513.812290,-3256.906145,-81359.341888
1333.848391,-7994.224174,-2072.576638,-78754.617194
1333.850953,-5625.565159,-5773.606348,-79520.712692
1333.853515,-4737.318029,-4589.276840,-76762.768900
1333.856077,-1184.329507,-2664.741391,-77528.864398
1333.858639,-7105.977043,888.247130,-77682.083497
1333.861201,-1924.535449,-9178.553681,-81665.780087
1333.863763,-3404.947333,1628.453072,-78601.398095
1333.866325,-2072.576638,-6217.729913,-81206.122788
1333.868886,1332.370696,15100.201217,-75383.797003
1333.871448,5625.565159,20133.601622,-79214.274493
1333.874010,5181.441594,-11547.212695,-82278.656485
1333.876572,-740.205942,11547.212695,-73698.386908
1333.879134,-7698.141797,-6957.935855,-83351.190182
1333.881696,7402.059420,2812.782580,-75843.454302
1333.884258,4737.318029,21317.931130,-78141.740796
1333.886820,5921.647536,-3552.988522,-82431.875585
1333.889382,4589.276840,8438.347739,-76149.892501
1333.891943,-888.247130,-148.041188,-82431.875585
1333.894505,888.247130,6217.729913,-77069.207099
1333.897067,10510.924376,12435.459826,-74617.701505
1333.899629,592.164754,4885.359217,-77375.645298
1333.902191,592.164754,-4885.359217,-81052.903688
1333.904753,740.205942,8734.430116,-78754.617194
1333.907315,-1924.535449,5033.400406,-81665.780087
1333.909877,8882.471304,4293.194464,-78294.959896
1333.912439,5773.606348,7698.141797,-76915.987999
1333.915001,5033.400406,2220.617826,-78907.836294
1333.917562,4589.276840,7254.018232,-77069.207099
1333.920124,-740.205942,9030.512492,-80133.589091
1333.922686,4885.359217,10066.800811,-78907.836294
1333.925248,3849.070898,4293.194464,-81359.341888
1333.927810,2960.823768,-2220.617826,-77222.426198
1333.930372,-4293.194464,2072.576638,-75537.016103
1333.932934,-7698.141797,2220.617826,-78448.178995
1333.935496,6513.812290,-7698.141797,-80286.808190
1333.938058,-8438.347739,3997.112087,-78907.836294
1333.940620,5329.482782,7254.018232,-83044.751983
1333.943181,-1924.535449,-5773.606348,-79214.274493
1333.945743,-3108.864956,-2368.659014,-76915.987999
1333.948305,-13027.624579,-3849.070898,-77375.645298
1333.950868,-5181.441594,-3404.947333,-79061.055394
1333.953431,4441.235652,1332.370696,-78141.740796
1333.955995,-3404.947333,-4293.194464,-82431.875585
1333.958558,-1628.453072,2960.823768,-78754.617194
1333.961121,-5329.482782,-6365.771101,-80899.684589
1333.963684,148.041188,-2664.741391,-77375.645298
1333.966247,-1628.453072,3701.029710,-76915.987999
1333.968810,-2516.700203,-444.123565,-79520.712692
1333.971373,296.082377,-148.041188,-79520.712692
1333.973936,-9770.718434,-5625.565159,-83351.190182
1333.976499,-6069.688724,-740.205942,-78141.740796
1333.979063,-7402.059420,-6809.894666,-79367.493593
1333.981626,-3256.906145,-3404.947333,-75996.673402
1333.984189,-1924.535449,-1184.329507,-78754.617194
1333.986752,-7550.100608,-4737.318029,-79214.274493
1333.989315,2072.576638,-1924.535449,-80133.589091
1333.991878,-11103.089130,-1924.535449,-80286.808190
1333.994441,2664.741391,7550.100608,-77835.302597
1333.997004,9622.677246,-7550.100608,-79520.712692
1333.999567,3997.112087,19245.354492,-74924.139704
1334.002131,444.123565,2368.659014,-78294.959896
1334.004694,-5921.647536,-20429.683999,-85036.600278
1334.007257,6069.688724,17172.777854,-71553.319513
1334.009820,2664.741391,4441.235652,-82738.313784
1334.012383,10955.047942,3701.029710,-76149.892501
1334.014946,4441.235652,18357.107362,-78294.959896
1334.017509,-5033.400406,-14211.954086,-85955.914876
1334.020072,9030.512492,11103.089130,-73851.606007
1334.022635,-740.205942,9622.677246,-79827.150892
1334.025199,6365.771101,5181.441594,-77988.521696
1334.027762,3997.112087,5477.523971,-76456.330700
1334.030325,-740.205942,888.247130,-79214.274493
1334.032888,592.164754,3552.988522,-81052.903688
1334.035451,5033.400406,9326.594869,-77988.521696
1334.038014,9326.594869,5477.523971,-77835.302597
1334.040577,4589.276840,5477.523971,-77988.521696
1334.043140,5625.565159,10362.883188,-77069.207099
1334.045704,4885.359217,2812.782580,-80593.246390
1334.048267,-1332.370696,9622.677246,-78448.178995
1334.050830,3997.112087,10066.800811,-80746.465489
1334.053394,4589.276840,-3997.112087,-80440.027290
1334.055958,3108.864956,1036.288319,-75537.016103
1334.058523,-6809.894666,4885.359217,-78141.740796
1334.061087,888.247130,-9770.718434,-78907.836294
1334.063651,-2664.741391,5477.523971,-77528.864398
1334.066216,-1332.370696,6661.853478,-82431.875585
1334.068780,1776.494261,-4293.194464,-79673.931792
1334.071344,-4737.318029,-1036.288319,-77835.302597
1334.073908,-9326.594869,-5033.400406,-78294.959896
1334.076473,-3256.906145,-4293.194464,-79061.055394
1334.079037,-888.247130,-3404.947333,-78601.398095
1334.081601,-5477.523971,-5033.400406,-81052.903688
1334.084166,-4885.359217,2072.576638,-78141.740796
1334.086730,-4145.153275,-2664.741391,-79673.931792
1334.089294,-592.164754,-4885.359217,-78294.959896
1334.091858,740.205942,2220.617826,-76303.111601
1334.094423,-2960.823768,2220.617826,-78141.740796
1334.096987,740.205942,-3552.988522,-79520.712692
1334.099551,-8438.347739,-2368.659014,-81206.122788
1334.102116,-7550.100608,-5181.441594,-79520.712692
1334.104680,-5773.606348,-5921.647536,-78141.740796
1334.107244,-4737.318029,1184.329507,-76456.330700
1334.109809,-6217.729913,592.164754,-78448.178995
1334.112373,-2812.782580,-11547.212695,-80899.684589
1334.114937,-4589.276840,2072.576638,-78141.740796
1334.117501,-7550.100608,-3404.947333,-81206.122788
1334.120066,4293.194464,9622.677246,-77375.645298
1334.122630,10362.883188,6217.729913,-79980.369991
1334.125194,5033.400406,2220.617826,-77528.864398
1334.127759,-740.205942,10807.006753,-78141.740796
1334.130323,-4145.153275,-13027.624579,-82278.656485
1334.132887,5625.565159,8882.471304,-75537.016103
1334.135452,4885.359217,18357.107362,-78141.740796
1334.138016,7402.059420,296.082377,-79827.150892
1334.140580,3701.029710,10362.883188,-76456.330700
1334.143144,-3552.988522,-1332.370696,-81818.999186
1334.145709,1184.329507,740.205942,-77375.645298
1334.148273,3849.070898,14359.995275,-76915.987999
1334.150837,2812.782580,1480.411884,-79673.931792
1334.153402,4737.318029,-1776.494261,-79367.493593
1334.155967,-2072.576638,5329.482782,-78601.398095
1334.158533,1480.411884,2960.823768,-81052.903688
1334.161098,5625.565159,5033.400406,-77682.083497
1334.163664,6217.729913,9622.677246,-76456.330700
1334.166230,8438.347739,5329.482782,-79214.274493
1334.168795,5477.523971,4441.235652,-76762.768900
1334.171361,3108.864956,14211.954086,-78907.836294
1334.173926,1480.411884,-1776.494261,-81512.560987
1334.176492,3256.906145,11695.253884,-77222.426198
1334.179057,-740.205942,-148.041188,-79673.931792
1334.181623,2072.576638,-3849.070898,-77375.645298
1334.184189,-4441.235652,2664.741391,-76915.987999
1334.186754,-2812.782580,-1628.453072,-80440.027290
1334.189320,592.164754,-3552.988522,-82278.656485
1334.191885,888.247130,3849.070898,-76456.330700
1334.194451,-6069.688724,-296.082377,-79980.369991
1334.197017,-6661.853478,-7402.059420,-79367.493593
1334.199582,-2664.741391,-4145.153275,-76915.987999
1334.202148,-2220.617826,-4145.153275,-77988.521696
1334.204713,-3552.988522,3108.864956,-79827.150892
1334.207279,-888.247130,-3256.906145,-81206.122788
1334.209844,-3997.112087,-3849.070898,-79827.150892
1334.212410,-2664.741391,-4145.153275,-79214.274493
1334.214976,-2220.617826,4589.276840,-74617.701505
1334.217541,-444.123565,-1628.453072,-79061.055394
1334.220107,-3997.112087,296.082377,-78601.398095
1334.222672,-5181.441594,-6661.853478,-81665.780087
1334.225238,-8142.265362,-1036.288319,-79520.712692
1334.227804,-5773.606348,-7550.100608,-81665.780087
1334.230369,-3108.864956,-4293.194464,-76456.330700
1334.232935,-3256.906145,2516.700203,-77222.426198
1334.235500,-3108.864956,-10510.924376,-79980.369991
1334.238066,-148.041188,3404.947333,-77682.083497
1334.240631,-6957.935855,-4589.276840,-81512.560987
1334.243197,2812.782580,740.205942,-78294.959896
1334.245763,4737.318029,25018.960840,-76149.892501
1334.248328,6513.812290,-7550.100608,-82431.875585
1334.250894,296.082377,1332.370696,-73698.386908
1334.253459,-6069.688724,2072.576638,-80899.684589
1334.256025,2960.823768,-1628.453072,-79827.150892
1334.258591,7846.182985,21910.095883,-77835.302597
1334.261157,9030.512492,740.205942,-82431.875585
1334.263723,2368.659014,3849.070898,-76456.330700
1334.266289,1036.288319,5773.606348,-79061.055394
1334.268854,148.041188,-5921.647536,-79673.931792
1334.271420,9030.512492,5773.606348,-77375.645298
1334.273986,-296.082377,9178.553681,-77222.426198
1334.276552,-1776.494261,-1480.411884,-83044.751983
1334.279118,3552.988522,5033.400406,-77835.302597
1334.281684,3404.947333,6957.935855,-79673.931792
1334.284250,6217.729913,5921.647536,-78141.740796
1334.286816,10214.842000,3997.112087,-76303.111601
1334.289382,1332.370696,13915.871710,-78141.740796
1334.291948,2516.700203,5773.606348,-81818.999186
1334.294513,2812.782580,3997.112087,-78448.178995
1334.297079,5181.441594,10510.924376,-78141.740796
1334.299645,-3997.112087,-888.247130,-80286.808190
1334.302211,3404.947333,-2072.576638,-77222.426198
1334.304777,-3849.070898,3552.988522,-76456.330700
1334.307343,-5329.482782,-7254.018232,-81206.122788
1334.309909,-2516.700203,3256.906145,-77988.521696
1334.312475,-1924.535449,9918.759623,-80593.246390
1334.315041,-5033.400406,-9326.594869,-81665.780087
1334.317607,444.123565,592.164754,-74924.139704
1334.320172,-9622.677246,-10658.965565,-79673.931792
1334.322738,-7698.141797,-1628.453072,-78754.617194
1334.325304,-2072.576638,1628.453072,-79214.274493
1334.327870,-4145.153275,-740.205942,-81512.560987
1334.330436,-2072.576638,-1480.411884,-81052.903688
1334.333002,-3256.906145,-5033.400406,-78294.959896
1334.335568,-1628.453072,1036.288319,-76456.330700
1334.338134,296.082377,-2072.576638,-77988.521696
1334.340700,-1924.535449,888.247130,-77528.864398
1334.343266,-6661.853478,-2664.741391,-80440.027290
1334.345831,-7846.182985,-4589.276840,-81818.999186
1334.348397,-10214.842000,-2368.659014,-79980.369991
1334.350963,-7105.977043,-6217.729913,-78294.959896
1334.353529,-4145.153275,-3404.947333,-76762.768900
1334.356095,-1036.288319,-5329.482782,-77988.521696
1334.358661,-3701.029710,740.205942,-79673.931792
1334.361227,-6069.688724,-5477.523971,-81818.999186
1334.363794,-888.247130,9326.594869,-78294.959896
1334.366361,11399.171507,7698.141797,-82585.094684
1334.368927,6069.688724,0.000000,-77069.207099
1334.371494,-148.041188,15544.324782,-74770.920605
1334.374060,-5329.482782,-18653.189738,-83044.751983
1334.376627,6365.771101,-2516.700203,-78294.959896
1334.379193,4293.194464,24130.713709,-77988.521696
1334.381760,6809.894666,-148.041188,-83657.628382
1334.384326,5181.441594,13323.706956,-76149.892501
1334.386893,148.041188,-3256.906145,-82738.313784
1334.389459,2072.576638,-6513.812290,-76149.892501
1334.392026,1332.370696,17912.983796,-74311.263306
1334.394592,5477.523971,-1776.494261,-80746.465489
1334.397159,4737.318029,1776.494261,-79214.274493
1334.399725,-148.041188,6957.935855,-80440.027290
1334.402292,2960.823768,1332.370696,-81052.903688
1334.404858,6513.812290,9326.594869,-76609.549800
1334.407425,11695.253884,6513.812290,-77222.426198
1334.409991,6809.894666,888.247130,-77988.521696
1334.412558,3997.112087,19541.436869,-76609.549800
1334.415125,592.164754,-6069.688724,-84576.942979
1334.417691,4293.194464,14063.912898,-77069.207099
1334.420258,-4737.318029,5033.400406,-82585.094684
1334.422824,3108.864956,-6661.853478,-77528.864398
1334.425391,-1924.535449,7402.059420,-73085.510509
1334.427957,-4441.235652,-9474.636058,-78601.398095
1334.430524,-296.082377,-8290.306550,-79980.369991
1334.433090,-2960.823768,16432.571912,-79214.274493
1334.435657,-6513.812290,-9918.759623,-85036.600278
1334.438223,740.205942,740.205942,-74617.701505
1334.440790,-7402.059420,-4441.235652,-78601.398095
1334.443356,-5477.523971,-9326.594869,-77222.426198
1334.445923,-1628.453072,6069.688724,-75537.016103
1334.448489,-3701.029710,-7846.182985,-82891.532884
1334.451056,1184.329507,3849.070898,-78754.617194
1334.453622,-3404.947333,-5329.482782,-81972.218286
1334.456189,-3108.864956,-1332.370696,-77375.645298
1334.458755,-1480.411884,148.041188,-76149.892501
1334.461322,-1036.288319,-3108.864956,-76456.330700
1334.463888,-6957.935855,-4589.276840,-80286.808190
1334.466455,-9030.512492,-2072.576638,-80593.246390
1334.469021,-7402.059420,-7846.182985,-81972.218286
1334.471587,-2516.700203,-3552.988522,-77988.521696
1334.474154,-3404.947333,-3404.947333,-78141.740796
1334.476720,-2516.700203,-4293.194464,-77375.645298
1334.479286,-4737.318029,2960.823768,-75690.235202
1334.481853,-296.082377,-8142.265362,-81665.780087
1334.484419,5625.565159,-2664.741391,-80440.027290
1334.486985,5773.606348,23834.631332,-78601.398095
1334.489552,6365.771101,-2812.782580,-83197.971083
1334.492118,592.164754,-2812.782580,-74617.701505
1334.494684,-3552.988522,5477.523971,-77375.645298
1334.497251,2072.576638,-5477.523971,-79827.150892
1334.499817,6957.935855,20577.725188,-75230.577904
1334.502383,7846.182985,2960.823768,-84117.285680
1334.504950,3256.906145,4145.153275,-78141.740796
1334.507516,2220.617826,13767.830521,-74924.139704
1334.510082,-3552.988522,-5625.565159,-81052.903688
1334.512649,6217.729913,9178.553681,-73545.167808
1334.515215,296.082377,6809.894666,-78754.617194
1334.517781,-296.082377,-1332.370696,-82125.437386
1334.520348,4737.318029,4737.318029,-79214.274493
1334.522914,1480.411884,10510.924376,-80133.589091
1334.525480,12139.377449,1480.411884,-78907.836294
1334.528047,4737.318029,13767.830521,-73545.167808
1334.530613,4885.359217,6661.853478,-79673.931792
1334.533179,4441.235652,1776.494261,-77682.083497
1334.535746,1628.453072,12287.418637,-77988.521696
1334.538312,-1924.535449,1776.494261,-81818.999186
1334.540878,0.000000,-1924.535449,-77375.645298
1334.543445,-444.123565,8586.388927,-76456.330700
1334.546011,-888.247130,-13767.830521,-79673.931792
1334.548577,-3404.947333,4737.318029,-75537.016103
1334.551143,-2072.576638,2220.617826,-81206.122788
1334.553710,-5329.482782,-3997.112087,-79061.055394
1334.556276,-1628.453072,5773.606348,-78754.617194
1334.558842,-7994.224174,-8290.306550,-80286.808190
1334.561409,-1924.535449,-2220.617826,-77528.864398
1334.563975,-3108.864956,-592.164754,-77835.302597
1334.566542,-5181.441594,-6957.935855,-80899.684589
1334.569108,-3108.864956,3701.029710,-78754.617194
1334.571675,-1628.453072,-2368.659014,-81052.903688
1334.574241,2812.782580,-2368.659014,-78141.740796
1334.576808,-3404.947333,1480.411884,-77069.207099
1334.579374,-740.205942,-3552.988522,-78294.959896
1334.581941,-5477.523971,-4885.359217,-78601.398095
1334.584507,-10362.883188,-296.082377,-80286.808190
1334.587074,-8142.265362,-6217.729913,-81359.341888
1334.589640,-1332.370696,-4885.359217,-77988.521696
1334.592207,-3552.988522,-6217.729913,-77988.521696
1334.594773,444.123565,592.164754,-76762.768900
1334.597340,-9326.594869,1924.535449,-78754.617194
1334.599906,-1480.411884,-2368.659014,-80899.684589
1334.602473,4589.276840,-3849.070898,-78294.959896
1334.605039,4589.276840,21762.054695,-78294.959896
1334.607606,8290.306550,-2368.659014,-82738.313784
1334.610172,2220.617826,-2368.659014,-75383.797003
1334.612739,-2516.700203,7846.182985,-77682.083497
1334.615305,2220.617826,-2072.576638,-82891.532884
1334.617872,6661.853478,12731.542202,-76762.768900
1334.620438,7994.224174,12583.501014,-81818.999186
1334.623005,444.123565,-8586.388927,-81052.903688
1334.625571,4737.318029,14063.912898,-74464.482406
1334.628138,-6069.688724,-3997.112087,-80899.684589
1334.630704,5181.441594,9326.594869,-75996.673402
1334.633271,-1184.329507,4293.194464,-79520.712692
1334.635837,148.041188,-592.164754,-81206.122788
1334.638404,3701.029710,10658.965565,-78754.617194
1334.640970,3701.029710,5033.400406,-79827.150892
1334.643537,11251.130318,7402.059420,-77528.864398
1334.646103,4441.235652,5625.565159,-76915.987999
1334.648670,3701.029710,13175.665768,-77835.302597
1334.651236,4145.153275,1036.288319,-81972.218286
1334.653803,740.205942,7846.182985,-78448.178995
1334.656369,-2516.700203,5329.482782,-80286.808190
1334.658936,1184.329507,-2960.823768,-79214.274493
1334.661502,-2960.823768,1924.535449,-76456.330700
1334.664069,-444.123565,6809.894666,-77069.207099
1334.666635,-5181.441594,-12139.377449,-82125.437386
1334.669179,-4293.194464,2368.659014,-76456.330700
1334.671717,-5033.400406,3404.947333,-79980.369991
1334.674254,-4885.359217,-9474.636058,-79980.369991
1334.676792,-1332.370696,-444.123565,-76149.892501
1334.679330,-4293.194464,-7698.141797,-78294.959896
1334.681867,-3849.070898,444.123565,-78601.398095
1334.684405,-3701.029710,888.247130,-80440.027290
1334.686943,-3552.988522,-1628.453072,-80440.027290
1334.689480,-1628.453072,-1480.411884,-80133.589091
1334.692018,-740.205942,592.164754,-75690.235202
1334.694556,-2960.823768,-1480.411884,-77988.521696
1334.697094,-4885.359217,-3997.112087,-78601.398095
1334.699631,-6513.812290,-8142.265362,-81206.122788
1334.702169,-11103.089130,-444.123565,-77988.521696
1334.704707,-7105.977043,-6957.935855,-81512.560987
1334.707244,-2368.659014,-2960.823768,-76762.768900
1334.709782,-3108.864956,-2664.741391,-79061.055394
1334.712320,-5773.606348,-2812.782580,-77528.864398
1334.714857,1776.494261,-3404.947333,-79367.493593
1334.717395,2220.617826,-1628.453072,-79214.274493
1334.719933,3849.070898,22058.137072,-79367.493593
1334.722470,5181.441594,2220.617826,-81972.218286
1334.725008,296.082377,-6957.935855,-76762.768900
1334.727546,-2072.576638,8142.265362,-77069.207099
1334.730084,1924.535449,-3701.029710,-79980.369991
1334.732621,7698.141797,17320.819043,-75230.577904
1334.735159,5329.482782,6957.935855,-82431.875585
1334.737697,2664.741391,-1924.535449,-81206.122788
1334.740234,3108.864956,11547.212695,-77835.302597
1334.742772,-1776.494261,-2368.659014,-79673.931792
1334.745310,4885.359217,10955.047942,-74770.920605
1334.747847,-1776.494261,1184.329507,-78907.836294
1334.750385,-1480.411884,-1480.411884,-81818.999186
1334.752923,6513.812290,9030.512492,-80286.808190
1334.755460,4441.235652,8882.471304,-79827.150892
1334.757998,11399.171507,7698.141797,-77835.302597
1334.760536,6217.729913,6069.688724,-76609.549800
1334.763074,3552.988522,8882.471304,-76915.987999
1334.765611,2664.741391,8438.347739,-79673.931792
1334.768149,1924.535449,0.000000,-82125.437386
1334.770692,-2516.700203,6809.894666,-77988.521696
1334.773235,740.205942,2812.782580,-79214.274493
1334.775778,-1480.411884,-11547.212695,-79520.712692
1334.778321,-148.041188,7550.100608,-74617.701505
1334.780864,-2368.659014,-5773.606348,-82278.656485
1334.783408,-2812.782580,444.123565,-76762.768900
1334.785951,-7550.100608,7846.182985,-79214.274493
1334.788494,-4737.318029,-9770.718434,-81665.780087
1334.791037,888.247130,-1480.411884,-76303.111601
1334.793580,-6365.771101,-3701.029710,-78448.178995
1334.796123,-5625.565159,-2368.659014,-79367.493593
1334.798666,-296.082377,-2072.576638,-78907.836294
1334.801209,444.123565,-296.082377,-79827.150892
1334.803752,-1924.535449,-1036.288319,-80133.589091
1334.806296,296.082377,2368.659014,-75996.673402
1334.808839,-3849.070898,-4737.318029,-78754.617194
1334.811382,-5625.565159,-4145.153275,-79367.493593
1334.813925,-6809.894666,-8586.388927,-79980.369991
1334.816468,-7994.224174,-5033.400406,-79061.055394
1334.819011,-3552.988522,-3552.988522,-81512.560987
1334.821554,-4293.194464,-4145.153275,-78294.959896
1334.824097,1184.329507,-1332.370696,-76456.330700
1334.826640,-10510.924376,592.164754,-77682.083497
1334.829183,1776.494261,4737.318029,-78601.398095
1334.831727,8734.430116,148.041188,-81512.560987
1334.834270,5329.482782,8586.388927,-77682.083497
1334.836813,3404.947333,15988.448347,-78448.178995
1334.839356,-3552.988522,-14063.912898,-81665.780087
1334.841899,3552.988522,11251.130318,-72472.634111
1334.844442,1776.494261,0.000000,-80899.684589
1334.846985,6513.812290,10510.924376,-76456.330700
1334.849528,6217.729913,12139.377449,-80286.808190
1334.852071,1628.453072,-5921.647536,-84576.942979
1334.854615,6069.688724,6513.812290,-75996.673402
1334.857158,740.205942,5773.606348,-77682.083497
1334.859701,-148.041188,3108.864956,-77835.302597
1334.862244,4145.153275,-296.082377,-78754.617194
1334.864787,-1776.494261,6217.729913,-79367.493593
1334.867330,4145.153275,5329.482782,-81665.780087
1334.869873,10955.047942,7550.100608,-78448.178995
1334.872421,7254.018232,10510.924376,-77528.864398
1334.874969,3404.947333,14359.995275,-77375.645298
1334.877517,3701.029710,-1332.370696,-77375.645298
1334.880065,1332.370696,5625.565159,-77069.207099
1334.882613,-740.205942,6365.771101,-80746.465489
1334.885161,1924.535449,-1184.329507,-80746.465489
1334.887709,-3404.947333,5625.565159,-76915.987999
1334.890257,-148.041188,-2812.782580,-79214.274493
1334.892804,-3849.070898,-9622.677246,-78141.740796
1334.895352,-2664.741391,14359.995275,-75537.016103
1334.897900,-9918.759623,-11843.295072,-82891.532884
1334.900448,888.247130,740.205942,-75843.454302
1334.902996,-8438.347739,2812.782580,-78754.617194
1334.905544,-3108.864956,-8734.430116,-81665.780087
1334.908092,-592.164754,-2960.823768,-76915.987999
1334.910640,-5625.565159,-3701.029710,-79367.493593
1334.913188,-6661.853478,2220.617826,-79367.493593
1334.915736,-444.123565,-148.041188,-79367.493593
1334.918284,1628.453072,-296.082377,-77528.864398
1334.920832,-4293.194464,-3997.112087,-79520.712692
1334.923380,-6513.812290,-1036.288319,-76456.330700
1334.925927,-4885.359217,-8142.265362,-79827.150892
1334.928475,-11251.130318,-5477.523971,-79827.150892
1334.931023,-4293.194464,-1628.453072,-79827.150892
1334.933571,-5773.606348,-8438.347739,-79827.150892
1334.936119,2072.576638,-740.205942,-76609.549800
1334.938667,-8734.430116,-740.205942,-78294.959896
1334.941215,148.041188,2072.576638,-78294.959896
1334.943763,8142.265362,-2960.823768,-79673.931792
1334.946311,4441.235652,17912.983796,-77988.521696
1334.948859,3552.988522,592.164754,-83044.751983
1334.951407,-444.123565,-3256.906145,-76303.111601
1334.953955,-1332.370696,8586.388927,-77222.426198
1334.956502,4145.153275,-4589.276840,-80286.808190
1334.959050,8142.265362,6661.853478,-77988.521696
1334.961598,4589.276840,15248.242405,-80440.027290
1334.964146,-740.205942,-8586.388927,-83964.066581
1334.966694,6217.729913,10807.006753,-74464.482406
1334.969242,-3552.988522,2220.617826,-78907.836294
1334.971790,2072.576638,3256.906145,-76303.111601
1334.974313,1628.453072,6217.729913,-76915.987999
1334.976836,-740.205942,-296.082377,-83044.751983
1334.979359,7254.018232,8290.306550,-79827.150892
1334.981882,7698.141797,10807.006753,-79827.150892
1334.984405,11695.253884,3997.112087,-77069.207099
1334.986928,3108.864956,10362.883188,-75077.358804
1334.989451,3108.864956,5329.482782,-77988.521696
1334.991974,1776.494261,3108.864956,-80286.808190
1334.994497,-3849.070898,7105.977043,-80593.246390
1334.997019,1924.535449,2812.782580,-81206.122788
1334.999542,-3256.906145,-1036.288319,-78448.178995
1335.002065,-888.247130,1628.453072,-77069.207099
1335.004588,-3701.029710,-10510.924376,-78141.740796
1335.007111,-1184.329507,9770.718434,-76149.892501
1335.009634,-9178.553681,-6069.688724,-81972.218286
1335.012157,-2516.700203,-5477.523971,-80440.027290
1335.014680,-3849.070898,3552.988522,-78141.740796
1335.017203,-3849.070898,-7105.977043,-80746.465489
1335.019726,-1184.329507,-4145.153275,-75690.235202
1335.022249,-3552.988522,296.082377,-78294.959896
1335.024772,-4441.235652,-2368.659014,-79827.150892
1335.027295,3256.906145,-592.164754,-79980.369991
1335.029818,-2812.782580,1184.329507,-80440.027290
1335.032341,-3256.906145,-3701.029710,-79367.493593
1335.034864,-7254.018232,-4145.153275,-75996.673402
1335.037387,-8290.306550,-2220.617826,-78294.959896
1335.039910,-5181.441594,-10066.800811,-81818.999186
1335.042432,-3256.906145,-4737.318029,-79214.274493
1335.044955,-3552.988522,-4885.359217,-80593.246390
1335.047478,-3552.988522,-1480.411884,-78601.398095
1335.050001,-2368.659014,-5329.482782,-77988.521696
1335.052524,-888.247130,5625.565159,-77528.864398
1335.055047,6069.688724,4737.318029,-81512.560987
1335.057570,9178.553681,5329.482782,-77682.083497
1335.060093,1036.288319,7994.224174,-79061.055394
1335.062616,-2072.576638,-5033.400406,-81972.218286
1335.065139,5181.441594,2368.659014,-77069.207099
1335.067662,7105.977043,16432.571912,-77682.083497
1335.070185,4885.359217,-1628.453072,-80746.465489
1335.072708,5329.482782,14359.995275,-77222.426198
1335.075240,-1332.370696,-3108.864956,-83044.751983
1335.077771,888.247130,-1924.535449,-79673.931792
1335.080303,3552.988522,10362.883188,-74158.044206
1335.082835,-1036.288319,3108.864956,-78601.398095
1335.085367,888.247130,1776.494261,-80593.246390
1335.087899,3849.070898,8734.430116,-80440.027290
1335.090431,9918.759623,6957.935855,-80746.465489
1335.092962,9474.636058,4737.318029,-77988.521696
1335.095494,3701.029710,16728.654289,-73851.606007
1335.098026,3108.864956,1628.453072,-80133.589091
1335.100558,444.123565,5329.482782,-77222.426198
1335.103090,-1628.453072,9474.636058,-80899.684589
1335.105621,3997.112087,-1628.453072,-81972.218286
1335.108153,-3701.029710,6217.729913,-77988.521696
1335.110685,-1184.329507,-5033.400406,-79980.369991
1335.113217,-3404.947333,-9178.553681,-76149.892501
1335.115749,-1628.453072,11399.171507,-76456.330700
1335.118281,-10214.842000,-1036.288319,-83044.751983
1335.120812,-740.205942,-7994.224174,-81052.903688
1335.123344,-6069.688724,5033.400406,-77069.207099
1335.125876,-5477.523971,-6661.853478,-80593.246390
1335.128408,-1036.288319,-5477.523971,-75690.235202
1335.130940,-6809.894666,1628.453072,-77375.645298
1335.133472,-3404.947333,-3256.906145,-80440.027290
1335.136003,-592.164754,2368.659014,-80133.589091
1335.138535,-888.247130,-1332.370696,-81206.122788
1335.141067,-2960.823768,-3552.988522,-79061.055394
1335.143599,-9326.594869,-2516.700203,-77528.864398
1335.146131,-10066.800811,-4737.318029,-77528.864398
1335.148662,-5033.400406,-7402.059420,-79827.150892
1335.151194,-4145.153275,-8438.347739,-81206.122788
1335.153726,-2960.823768,592.164754,-79673.931792
1335.156265,-6217.729913,-1776.494261,-80286.808190
1335.158804,4145.153275,-7994.224174,-77682.083497
1335.161343,-2368.659014,3997.112087,-74770.920605
1335.163882,4885.359217,12435.459826,-80133.589091
1335.166421,8734.430116,-7254.018232,-80593.246390
1335.168960,740.205942,19097.313304,-76303.111601
1335.171499,-5773.606348,2516.700203,-83044.751983
1335.174038,4589.276840,-4885.359217,-78294.959896
1335.176577,9918.759623,20725.766376,-74311.263306
1335.179116,2960.823768,-3108.864956,-81052.903688
1335.181654,5921.647536,11399.171507,-75077.358804
1335.184193,0.000000,2664.741391,-82278.656485
1335.186732,4145.153275,-2220.617826,-80286.808190
1335.189271,1184.329507,7698.141797,-75690.235202
1335.191810,-1924.535449,1480.411884,-78754.617194
1335.194349,3701.029710,1332.370696,-79061.055394
1335.196888,7698.141797,7402.059420,-78448.178995
1335.199427,6809.894666,12879.583391,-79673.931792
1335.201966,9622.677246,4293.194464,-80286.808190
1335.204505,7846.182985,11547.212695,-74158.044206
1335.207044,3701.029710,8290.306550,-77988.521696
1335.209583,444.123565,-740.205942,-78141.740796
1335.212122,-1480.411884,13323.706956,-77375.645298
1335.214661,444.123565,-592.164754,-83657.628382
1335.217200,-1332.370696,-444.123565,-76915.987999
1335.219739,-444.123565,5477.523971,-78601.398095
1335.222278,-6069.688724,-12139.377449,-78601.398095
1335.224817,-740.205942,5181.441594,-74464.482406
1335.227355,-10807.006753,2220.617826,-79980.369991
1335.229894,-4737.318029,-9326.594869,-80593.246390
1335.232433,-3404.947333,3849.070898,-77835.302597
1335.234972,-5625.565159,-1332.370696,-79214.274493
1335.237511,-3849.070898,-4885.359217,-77528.864398
1335.240050,-4885.359217,1628.453072,-76762.768900
1335.242589,-4737.318029,-2220.617826,-80440.027290
1335.245128,-888.247130,-2072.576638,-80746.465489
1335.247667,0.000000,1332.370696,-78294.959896
1335.250206,-6661.853478,-3404.947333,-79214.274493
1335.252745,-9918.759623,-2220.617826,-77375.645298
1335.255284,-8290.306550,-11251.130318,-78754.617194
1335.257829,-4589.276840,-1628.453072,-77988.521696
1335.260374,-5329.482782,-8142.265362,-82125.437386
1335.262919,1480.411884,-3256.906145,-78754.617194
1335.265464,-9326.594869,1924.535449,-78754.617194
1335.268009,-4885.359217,-888.247130,-78907.836294
1335.270554,9918.759623,-6217.729913,-77069.207099
1335.273099,4441.235652,17912.983796,-76149.892501
1335.275644,5329.482782,1036.288319,-83964.066581
1335.278189,-4737.318029,-9030.512492,-81972.218286
1335.280734,3404.947333,8586.388927,-77069.207099
1335.283279,2220.617826,444.123565,-79520.712692
1335.285823,9622.677246,11103.089130,-75383.797003
1335.288368,6957.935855,7402.059420,-79367.493593
1335.290913,740.205942,-3552.988522,-81512.560987
1335.293458,1924.535449,9918.759623,-78141.740796
1335.296003,-444.123565,1332.370696,-80746.465489
1335.298548,1332.370696,3552.988522,-77682.083497
1335.301093,3701.029710,4589.276840,-76456.330700
1335.303638,1776.494261,3849.070898,-78601.398095
1335.306183,8734.430116,8586.388927,-79980.369991
1335.308728,8882.471304,5033.400406,-80133.589091
1335.311273,6217.729913,13915.871710,-77528.864398
1335.313818,4885.359217,10658.965565,-77988.521696
1335.316363,-1036.288319,2960.823768,-76456.330700
1335.318908,2960.823768,7550.100608,-78448.178995
1335.321453,-1184.329507,-6809.894666,-81512.560987
1335.323998,-444.123565,11103.089130,-77375.645298
1335.326543,-1184.329507,-4737.318029,-82585.094684
1335.329088,-3108.864956,-10066.800811,-80133.589091
1335.331633,592.164754,11991.336260,-75537.016103
1335.334178,-9474.636058,-6809.894666,-79673.931792
1335.336723,-1924.535449,-2960.823768,-77222.426198
1335.339268,-7698.141797,3256.906145,-79061.055394
1335.341813,-1332.370696,-9474.636058,-82125.437386
1335.344358,-2812.782580,2516.700203,-76149.892501
1335.346903,-3552.988522,-740.205942,-79827.150892
1335.349448,-1332.370696,-2664.741391,-79673.931792
1335.351993,-1776.494261,4589.276840,-77528.864398
1335.354538,-1776.494261,-1924.535449,-80440.027290
1335.357083,-3997.112087,-8586.388927,-80286.808190
1335.359633,-8290.306550,740.205942,-76149.892501
1335.362183,-9474.636058,-10214.842000,-81206.122788
1335.364733,-5477.523971,-444.123565,-78141.740796
1335.367284,-2664.741391,-10214.842000,-82278.656485
1335.369834,296.082377,-296.082377,-78141.740796
1335.372384,-7402.059420,-1924.535449,-79980.369991
1335.374934,-740.205942,-1184.329507,-78141.740796
1335.377484,3552.988522,-6365.771101,-77682.083497
1335.380035,5773.606348,20281.642811,-75230.577904
1335.382585,2516.700203,7402.059420,-83504.409282
1335.385135,-444.123565,-9918.759623,-80593.246390
1335.387685,-1332.370696,9918.759623,-77375.645298
1335.390236,1036.288319,-1776.494261,-81665.780087
1335.392786,10807.006753,10362.883188,-75537.016103
1335.395336,4737.318029,6069.688724,-79367.493593
1335.397886,888.247130,-1776.494261,-80593.246390
1335.400437,4589.276840,6365.771101,-78601.398095
1335.402987,-888.247130,1628.453072,-80746.465489
1335.405537,3404.947333,2368.659014,-78294.959896
1335.408087,4145.153275,5625.565159,-76149.892501
1335.410637,3997.112087,3552.988522,-79673.931792
1335.413188,8142.265362,8438.347739,-79214.274493
1335.415738,7402.059420,7846.182985,-79520.712692
1335.418288,8586.388927,7105.977043,-77375.645298
1335.420838,5033.400406,15248.242405,-76762.768900
1335.423389,1036.288319,3404.947333,-79827.150892
1335.425939,-740.205942,2220.617826,-77988.521696
1335.428489,1184.329507,2960.823768,-80286.808190
1335.431039,-4293.194464,1776.494261,-78754.617194
1335.433590,1480.411884,888.247130,-78141.740796
1335.436140,-5477.523971,-7698.141797,-80133.589091
1335.438690,-1332.370696,6661.853478,-75230.577904
1335.441240,-9326.594869,592.164754,-79827.150892
1335.443790,-1480.411884,-8438.347739,-80286.808190
1335.446341,-7698.141797,4885.359217,-76915.987999
1335.448891,-2812.782580,-3701.029710,-81206.122788
1335.451441,-1776.494261,-3701.029710,-77375.645298
1335.453991,-2072.576638,1776.494261,-77988.521696
1335.456542,-2664.741391,-2368.659014,-79520.712692
1335.459092,444.123565,1036.288319,-78294.959896
1335.461647,-3256.906145,2516.700203,-77069.207099
1335.464202,-6365.771101,-5773.606348,-79673.931792
1335.466756,-10066.800811,-3552.988522,-76762.768900
1335.469311,-6957.935855,-2664.741391,-79520.712692
1335.471866,-7105.977043,-10214.842000,-81818.999186
1335.474421,-148.041188,-3404.947333,-79980.369991
1335.476976,-3701.029710,-148.041188,-80440.027290
1335.479531,-5033.400406,-9178.553681,-79367.493593
1335.482086,-3997.112087,11399.171507,-74464.482406
1335.484641,6957.935855,-1776.494261,-82738.313784
1335.487196,9326.594869,-6957.935855,-79827.150892
1335.489750,2960.823768,16284.530724,-76149.892501
1335.492305,-3404.947333,-740.205942,-83044.751983
1335.494860,3849.070898,-3108.864956,-78601.398095
1335.497415,6513.812290,18949.272115,-75843.454302
1335.499970,2368.659014,-4589.276840,-81665.780087
1335.502525,5625.565159,10807.006753,-75690.235202
1335.505080,1184.329507,1332.370696,-81052.903688
1335.507635,1628.453072,-2960.823768,-80286.808190
1335.510189,888.247130,7254.018232,-76915.987999
1335.512744,-740.205942,444.123565,-79214.274493
1335.515299,6069.688724,2516.700203,-79520.712692
1335.517854,5921.647536,11547.212695,-78754.617194
1335.520409,9770.718434,5329.482782,-81818.999186
1335.522964,7698.141797,6957.935855,-77375.645298
1335.525519,5921.647536,11695.253884,-77222.426198
1335.528074,-888.247130,4441.235652,-77069.207099
1335.530628,-1332.370696,3404.947333,-79061.055394
1335.533183,3552.988522,1184.329507,-80440.027290
1335.535738,-3701.029710,2516.700203,-78907.836294
1335.538293,296.082377,1184.329507,-79214.274493
1335.540848,-10066.800811,-3404.947333,-78448.178995
1335.543403,740.205942,10066.800811,-74924.139704
1335.545958,-9326.594869,-5033.400406,-80899.684589
1335.548513,-1036.288319,-5181.441594,-77682.083497
1335.551068,-7846.182985,6217.729913,-77988.521696
1335.553622,-3108.864956,-5181.441594,-82891.532884
1335.556177,888.247130,148.041188,-75843.454302
1335.558732,-2812.782580,-2072.576638,-79520.712692
1335.561287,-2516.700203,740.205942,-77375.645298
1335.563845,740.205942,2664.741391,-77988.521696
1335.566403,-2664.741391,-2664.741391,-79214.274493
1335.568961,-6217.729913,-5033.400406,-80133.589091
1335.571519,-10066.800811,-1332.370696,-77069.207099
1335.574078,-9770.718434,-5181.441594,-79673.931792
1335.576636,-5921.647536,-8438.347739,-79520.712692
1335.579194,-1776.494261,-2072.576638,-79673.931792
1335.581752,-4589.276840,-296.082377,-80593.246390
1335.584310,1332.370696,-7402.059420,-79673.931792
1335.586868,-2516.700203,888.247130,-75537.016103
1335.589426,3997.112087,14359.995275,-79673.931792
1335.591984,9030.512492,-4885.359217,-80133.589091
1335.594542,5329.482782,7698.141797,-75843.454302
1335.597101,-5033.400406,-888.247130,-82125.437386
1335.599659,1480.411884,-3552.988522,-79980.369991
1335.602217,9326.594869,15544.324782,-77069.207099
1335.604775,3997.112087,-1036.288319,-81206.122788
1335.607333,7402.059420,7994.224174,-77222.426198
1335.609891,-1332.370696,1776.494261,-79520.712692
1335.612449,1184.329507,148.041188,-79980.369991
1335.615007,1776.494261,2368.659014,-77988.521696
1335.617565,592.164754,3849.070898,-77528.864398
1335.620123,2664.741391,4737.318029,-79214.274493
1335.622682,6957.935855,11103.089130,-79214.274493
1335.625240,13323.706956,6365.771101,-80286.808190
1335.627798,6957.935855,3997.112087,-77988.521696
1335.630356,5033.400406,17024.736666,-76149.892501
1335.632914,-2960.823768,-2812.782580,-79061.055394
1335.635472,4293.194464,9770.718434,-75537.016103
1335.638030,296.082377,-1924.535449,-81818.999186
1335.640588,-296.082377,1924.535449,-79673.931792
1335.643146,-1628.453072,-592.164754,-79980.369991
1335.645704,-6809.894666,-13471.748144,-80440.027290
1335.648263,-1332.370696,11695.253884,-72625.853210
1335.650821,-9326.594869,-3256.906145,-80593.246390
1335.653379,592.164754,-5033.400406,-76762.768900
1335.655937,-7698.141797,3701.029710,-78448.178995
1335.658495,-3108.864956,-4441.235652,-81972.218286
1335.661053,-1332.370696,-296.082377,-77069.207099
1335.663611,-3552.988522,0.000000,-78601.398095
1335.666179,-2664.741391,444.123565,-77682.083497
1335.668740,740.205942,148.041188,-78294.959896
1335.671301,-2960.823768,-1184.329507,-78754.617194
1335.673862,-7550.100608,-3997.112087,-80133.589091
1335.676423,-8734.430116,-5329.482782,-78141.740796
1335.678984,-8438.347739,-740.205942,-78141.740796
1335.681545,-6365.771101,-9178.553681,-81512.560987
1335.684106,1036.288319,-5181.441594,-78448.178995
1335.686667,-6661.853478,1480.411884,-80286.808190
1335.689228,-7698.141797,-740.205942,-79367.493593
1335.691789,5033.400406,-5329.482782,-77375.645298
1335.694350,2516.700203,22354.219448,-75843.454302
1335.696911,5329.482782,-1480.411884,-83197.971083
1335.699472,3701.029710,4589.276840,-80133.589091
1335.702033,3552.988522,5181.441594,-78754.617194
1335.704594,-2368.659014,-3108.864956,-81052.903688
1335.707155,6217.729913,16728.654289,-75537.016103
1335.709716,2960.823768,4589.276840,-79827.150892
1335.712277,4737.318029,2072.576638,-79061.055394
1335.714838,3701.029710,1776.494261,-79061.055394
1335.717399,-888.247130,148.041188,-79367.493593
1335.719960,296.082377,1480.411884,-78754.617194
1335.722521,2664.741391,3552.988522,-77528.864398
1335.725082,6661.853478,6957.935855,-80286.808190
1335.727643,8290.306550,5921.647536,-81052.903688
1335.730204,8586.388927,7994.224174,-79214.274493
1335.732765,9326.594869,7698.141797,-78448.178995
1335.735326,2220.617826,6957.935855,-76303.111601
1335.737887,888.247130,4441.235652,-76915.987999
1335.740448,1776.494261,-3256.906145,-79673.931792
1335.743009,2220.617826,9770.718434,-79827.150892
1335.745570,0.000000,-9326.594869,-83044.751983
1335.748131,-5773.606348,6069.688724,-76762.768900
1335.750692,-3108.864956,-888.247130,-80286.808190
1335.753253,-4589.276840,-9326.594869,-78601.398095
1335.755814,-1924.535449,296.082377,-75077.358804
1335.758375,-6365.771101,3701.029710,-79520.712692
1335.760936,-2812.782580,-8734.430116,-82278.656485
1335.763497,-1036.288319,6217.729913,-76915.987999
1335.766058,-8882.471304,-3404.947333,-81972.218286
1335.768593,-2072.576638,5329.482782,-76762.768900
1335.771127,-1332.370696,-148.041188,-78907.836294
1335.773662,1036.288319,-8882.471304,-78907.836294
1335.776196,-5921.647536,-592.164754,-78294.959896
1335.778730,-10807.006753,1184.329507,-77988.521696
1335.781265,-7550.100608,-3849.070898,-79980.369991
1335.783799,-4589.276840,-4589.276840,-78907.836294
1335.786334,-5477.523971,-5625.565159,-79367.493593
1335.788868,-5477.523971,-740.205942,-79827.150892
1335.791403,148.041188,-4885.359217,-79367.493593
1335.793937,-1332.370696,-2516.700203,-76609.549800
1335.796471,2664.741391,23242.466579,-77835.302597
1335.799006,6809.894666,-8142.265362,-82891.532884
1335.801540,3701.029710,14359.995275,-74924.139704
1335.804075,-5181.441594,-6069.688724,-84576.942979
1335.806609,2220.617826,-6365.771101,-80133.589091
1335.809144,10658.965565,15988.448347,-75690.235202
1335.811678,1924.535449,-148.041188,-82125.437386
1335.814212,4441.235652,7402.059420,-78294.959896
1335.816747,-1776.494261,2664.741391,-79673.931792
1335.819281,-148.041188,-1184.329507,-79980.369991
1335.821816,2516.700203,2072.576638,-77835.302597
1335.824350,-592.164754,3108.864956,-78141.740796
1335.826885,4885.359217,6365.771101,-80286.808190
1335.829419,8290.306550,5921.647536,-80286.808190
1335.831953,8734.430116,9474.636058,-80133.589091
1335.834488,7698.141797,7105.977043,-78754.617194
1335.837022,2220.617826,8438.347739,-75690.235202
1335.839557,592.164754,5033.400406,-77222.426198
1335.842091,-888.247130,-4589.276840,-79980.369991
1335.844626,2664.741391,9178.553681,-79673.931792
1335.847160,-148.041188,-9030.512492,-82738.313784
1335.849694,-4293.194464,2812.782580,-77222.426198
1335.852229,-1184.329507,3701.029710,-78907.836294
1335.854763,-2516.700203,-11103.089130,-77682.083497
1335.857298,-2664.741391,-1184.329507,-74464.482406
1335.859832,-5773.606348,5033.400406,-79367.493593
1335.862367,-2664.741391,-9918.759623,-81972.218286
1335.864901,1036.288319,9474.636058,-75996.673402
1335.867436,-7846.182985,-5033.400406,-82431.875585
1335.869949,1480.411884,740.205942,-76456.330700
1335.872463,-296.082377,2220.617826,-76762.768900
1335.874976,-3997.112087,-2664.741391,-79673.931792
1335.877490,-3552.988522,-3552.988522,-78294.959896
1335.880003,-8586.388927,-3849.070898,-78754.617194
1335.882516,-9770.718434,-1036.288319,-78448.178995
1335.885030,-8290.306550,-3404.947333,-79980.369991
1335.887543,2516.700203,-8438.347739,-80593.246390
1335.890057,-8882.471304,740.205942,-78907.836294
1335.892570,-1036.288319,-1184.329507,-79827.150892
1335.895084,1332.370696,-1628.453072,-75843.454302
1335.897597,5921.647536,25907.207970,-76915.987999
1335.900111,5329.482782,-6513.812290,-83810.847481
1335.902624,3849.070898,6365.771101,-75690.235202
1335.905138,-4737.318029,1332.370696,-82125.437386
1335.907651,-740.205942,-6217.729913,-82738.313784
1335.910165,11103.089130,9918.759623,-76456.330700
1335.912678,7402.059420,7994.224174,-79214.274493
1335.915192,-1628.453072,-3108.864956,-81512.560987
1335.917705,2812.782580,2960.823768,-78294.959896
1335.920219,-2812.782580,296.082377,-78601.398095
1335.922732,1184.329507,1480.411884,-77835.302597
1335.925246,3404.947333,8142.265362,-77835.302597
1335.927759,5625.565159,7550.100608,-81052.903688
1335.930273,13915.871710,5773.606348,-82278.656485
1335.932786,5329.482782,4885.359217,-79980.369991
1335.935300,6513.812290,11843.295072,-76456.330700
1335.937813,148.041188,148.041188,-77069.207099
1335.940327,148.041188,5921.647536,-77069.207099
1335.942840,1332.370696,-592.164754,-82278.656485
1335.945354,-1036.288319,-6217.729913,-80440.027290
1335.947867,-2516.700203,6957.935855,-80593.246390
1335.950381,-4293.194464,-11991.336260,-81206.122788
1335.952894,-2072.576638,8734.430116,-72472.634111
1335.955408,-9326.594869,-2368.659014,-79827.150892
1335.957921,-444.123565,-10066.800811,-76762.768900
1335.960435,-2516.700203,5921.647536,-77375.645298
1335.962948,-5181.441594,-5773.606348,-83964.066581
1335.965462,-2812.782580,-3849.070898,-79827.150892
1335.967975,1628.453072,3552.988522,-76456.330700
1335.970501,-2368.659014,1628.453072,-77988.521696
1335.973026,-1628.453072,-740.205942,-77528.864398
1335.975552,-2664.741391,-4293.194464,-76456.330700
1335.978078,-8142.265362,-8734.430116,-79980.369991
1335.980603,-10658.965565,2664.741391,-78141.740796
1335.983129,-6809.894666,-3108.864956,-81512.560987
1335.985654,-2072.576638,-8142.265362,-80746.465489
1335.988180,-4589.276840,4589.276840,-78141.740796
1335.990705,-2960.823768,-6365.771101,-79214.274493
1335.993231,296.082377,-1184.329507,-74770.920605
1335.995756,5625.565159,23242.466579,-77835.302597
1335.998282,5625.565159,-5329.482782,-82738.313784
1336.000807,2812.782580,13175.665768,-76456.330700
1336.003333,-5329.482782,-4441.235652,-84576.942979
1336.005859,5033.400406,-1332.370696,-78141.740796
1336.008384,7254.018232,16728.654289,-75996.673402
1336.010910,-148.041188,592.164754,-79827.150892
1336.013435,5329.482782,6513.812290,-77375.645298
1336.015961,2812.782580,3552.988522,-79367.493593
1336.018486,-1184.329507,-1184.329507,-81206.122788
1336.021012,0.000000,2812.782580,-77069.207099
1336.023537,3552.988522,7994.224174,-76609.549800
1336.026063,2812.782580,8586.388927,-79214.274493
1336.028589,12139.377449,6809.894666,-80440.027290
1336.031114,11251.130318,1332.370696,-80133.589091
1336.033640,5773.606348,10214.842000,-79214.274493
1336.036165,-4589.276840,5477.523971,-77528.864398
1336.038691,296.082377,9474.636058,-75230.577904
1336.041216,-296.082377,-4441.235652,-79980.369991
1336.043742,-1924.535449,-7698.141797,-80286.808190
1336.046267,-1480.411884,2812.782580,-80133.589091
1336.048793,-4885.359217,-12583.501014,-81052.903688
1336.051318,-3997.112087,13471.748144,-74158.044206
1336.053844,-6661.853478,-740.205942,-80593.246390
1336.056370,-888.247130,-14952.160028,-77528.864398
1336.058895,-4885.359217,8438.347739,-76456.330700
1336.061421,-5477.523971,-8142.265362,-83657.628382
1336.063946,1036.288319,2516.700203,-77069.207099
1336.066472,-3108.864956,0.000000,-79673.931792
1336.068997,-1776.494261,1036.288319,-79214.274493
1336.071533,-1332.370696,296.082377,-77835.302597
1336.074069,-3997.112087,-4589.276840,-77222.426198
1336.076605,-7698.141797,-10214.842000,-79673.931792
1336.079141,-9622.677246,3849.070898,-76762.768900
1336.081677,-6809.894666,-3552.988522,-80746.465489
1336.084213,-3108.864956,-9622.677246,-80593.246390
1336.086749,-4589.276840,7994.224174,-79061.055394
1336.089285,-2664.741391,-13915.871710,-82738.313784
1336.091821,1480.411884,1628.453072,-72779.072310
1336.094357,5773.606348,26795.455100,-73238.729609
1336.096893,5033.400406,-1480.411884,-82891.532884
1336.099428,3404.947333,5625.565159,-76762.768900
1336.101964,-2960.823768,1628.453072,-83197.971083
1336.104500,1480.411884,-6661.853478,-79980.369991
1336.107036,9030.512492,22650.301825,-75077.358804
1336.109572,592.164754,1480.411884,-80899.684589
1336.112108,8290.306550,1628.453072,-77375.645298
1336.114644,-2220.617826,888.247130,-79520.712692
1336.117180,-1184.329507,-1184.329507,-80899.684589
1336.119716,444.123565,5921.647536,-77528.864398
1336.122252,2960.823768,7698.141797,-77988.521696
1336.124788,7550.100608,6069.688724,-79673.931792
1336.127324,9178.553681,10066.800811,-79367.493593
1336.129860,6809.894666,2960.823768,-80440.027290
1336.132396,5773.606348,5181.441594,-77835.302597
1336.134931,-2072.576638,7402.059420,-75690.235202
1336.137467,-3108.864956,8142.265362,-77528.864398
1336.140003,4293.194464,-592.164754,-81512.560987
1336.142539,-1924.535449,-1628.453072,-80593.246390
1336.145075,-2072.576638,-1628.453072,-81972.218286
1336.147611,-8734.430116,-8882.471304,-80440.027290
1336.150147,148.041188,5477.523971,-74311.263306
1336.152683,-9918.759623,2664.741391,-77682.083497
1336.155219,-296.082377,-10658.965565,-79061.055394
1336.157755,-3256.906145,3108.864956,-77682.083497
1336.160291,-3701.029710,-3552.988522,-83964.066581
1336.162827,-2664.741391,-2072.576638,-79673.931792
1336.165363,1480.411884,2220.617826,-77682.083497
1336.167899,-1036.288319,888.247130,-77375.645298
1336.170435,-1480.411884,-444.123565,-77835.302597
1336.172978,-7254.018232,-6217.729913,-77528.864398
1336.175522,-6661.853478,-7550.100608,-80593.246390
1336.178066,-10066.800811,0.000000,-78448.178995
1336.180610,-5477.523971,-296.082377,-79980.369991
1336.183154,3404.947333,-6069.688724,-81052.903688
1336.185698,-6957.935855,-7698.141797,-78754.617194
1336.188242,-1184.329507,2960.823768,-78141.740796
1336.190786,5033.400406,-7402.059420,-78907.836294
1336.193330,5329.482782,26499.372724,-74004.825107
1336.195874,6217.729913,7994.224174,-83044.751983
1336.198418,2368.659014,-15100.201217,-84730.162079
1336.200962,1776.494261,7994.224174,-75843.454302
1336.203506,-148.041188,-444.123565,-82125.437386
1336.206050,8290.306550,12879.583391,-75077.358804
1336.208594,4589.276840,9918.759623,-78601.398095
1336.211138,2960.823768,-2812.782580,-82125.437386
1336.213681,740.205942,592.164754,-79827.150892
1336.216225,-2368.659014,2960.823768,-79673.931792
1336.218769,-444.123565,4441.235652,-77682.083497
1336.221313,5625.565159,10510.924376,-77069.207099
1336.223857,8586.388927,7550.100608,-80133.589091
1336.226401,10955.047942,2664.741391,-82891.532884
1336.228945,5773.606348,9326.594869,-78601.398095
1336.231489,-2960.823768,6957.935855,-78141.740796
1336.234033,-296.082377,9770.718434,-74924.139704
1336.236577,-1184.329507,-2516.700203,-77988.521696
1336.239121,-740.205942,6809.894666,-78141.740796
1336.241665,2368.659014,-17172.777854,-86109.133975
1336.244209,-8734.430116,-148.041188,-78601.398095
1336.246753,-4293.194464,4145.153275,-79827.150892
1336.249297,-5181.441594,-5477.523971,-77375.645298
1336.251841,-4441.235652,5773.606348,-73851.606007
1336.254385,-5625.565159,-888.247130,-78601.398095
1336.256928,-2960.823768,-12731.542202,-83044.751983
1336.259472,592.164754,6513.812290,-77222.426198
1336.262016,-4145.153275,-2516.700203,-82738.313784
1336.264560,1332.370696,6069.688724,-77375.645298
1336.267104,-1628.453072,1332.370696,-78754.617194
1336.269648,-2960.823768,-12435.459826,-79214.274493
1336.272192,-10066.800811,-3849.070898,-75383.797003
1336.274743,-7402.059420,-3108.864956,-78448.178995
1336.277294,-6809.894666,-4589.276840,-79520.712692
1336.279845,444.123565,-1628.453072,-80593.246390
1336.282396,-7846.182985,296.082377,-81206.122788
1336.284947,-592.164754,-7994.224174,-82431.875585
1336.287498,1628.453072,-1924.535449,-75383.797003
1336.290049,6661.853478,22650.301825,-74004.825107
1336.292600,7254.018232,4737.318029,-79367.493593
1336.295151,2516.700203,5773.606348,-78141.740796
1336.297702,-2516.700203,-2072.576638,-83657.628382
1336.300253,1924.535449,-4293.194464,-81052.903688
1336.302804,6661.853478,14804.118840,-77988.521696
1336.305354,2220.617826,9918.759623,-77988.521696
1336.307905,1332.370696,1332.370696,-78294.959896
1336.310456,3404.947333,-592.164754,-77988.521696
1336.313007,-2072.576638,-3404.947333,-79827.150892
1336.315558,592.164754,4589.276840,-78907.836294
1336.318109,1776.494261,13323.706956,-77988.521696
1336.320660,9918.759623,10362.883188,-81359.341888
1336.323211,10214.842000,3256.906145,-80746.465489
1336.325762,8142.265362,3404.947333,-77988.521696
1336.328313,-4293.194464,7550.100608,-75690.235202
1336.330864,1924.535449,7402.059420,-76149.892501
1336.333415,-592.164754,-1184.329507,-76915.987999
1336.335966,444.123565,2664.741391,-79673.931792
1336.338517,-3404.947333,-3552.988522,-84423.723880
1336.341068,-4737.318029,-12583.501014,-81972.218286
1336.343619,-2368.659014,8734.430116,-74770.920605
1336.346170,-9178.553681,-5033.400406,-77069.207099
1336.348721,-1036.288319,-1776.494261,-74617.701505
1336.351272,-4145.153275,-888.247130,-79214.274493
1336.353823,-4441.235652,-8734.430116,-82891.532884
1336.356350,-444.123565,5329.482782,-78754.617194
1336.358878,-2812.782580,-1480.411884,-79827.150892
1336.361406,1036.288319,2812.782580,-76609.549800
1336.363934,-2960.823768,888.247130,-76915.987999
1336.366462,-7254.018232,-13175.665768,-78601.398095
1336.368990,-7698.141797,-8586.388927,-78448.178995
1336.371518,-8290.306550,-1332.370696,-79214.274493
1336.374046,-4589.276840,3552.988522,-79673.931792
1336.376574,3404.947333,-2072.576638,-81818.999186
1336.379102,-8438.347739,-6217.729913,-78448.178995
1336.381630,-1924.535449,444.123565,-79673.931792
1336.384158,4737.318029,-12879.583391,-78448.178995
1336.386686,7994.224174,14063.912898,-73698.386908
1336.389214,4441.235652,23834.631332,-78294.959896
1336.391742,-740.205942,-15988.448347,-85496.257577
1336.394270,5329.482782,9622.677246,-75996.673402
1336.396798,-2220.617826,-2368.659014,-83504.409282
1336.399326,8290.306550,11103.089130,-75230.577904
1336.401853,3404.947333,14063.912898,-76303.111601
1336.404381,148.041188,-2664.741391,-81206.122788
1336.406909,3997.112087,-2220.617826,-79980.369991
1336.409437,-1184.329507,-1332.370696,-79980.369991
1336.411965,-1036.288319,6809.894666,-77988.521696
1336.414493,6661.853478,10955.047942,-77988.521696
1336.417021,11695.253884,11251.130318,-77988.521696
1336.419549,7254.018232,1332.370696,-82738.313784
1336.422077,4737.318029,3849.070898,-80593.246390
1336.424605,-148.041188,4589.276840,-77682.083497
1336.427133,592.164754,8734.430116,-74311.263306
1336.429661,-740.205942,6513.812290,-77528.864398
1336.432189,-148.041188,-2960.823768,-80286.808190
1336.434717,-2072.576638,-9622.677246,-81972.218286
1336.437245,-3108.864956,-11547.212695,-80899.684589
1336.439773,-3108.864956,12435.459826,-74311.263306
1336.442301,-7550.100608,1332.370696,-79520.712692
1336.444829,-296.082377,-8438.347739,-76456.330700
1336.447357,-5329.482782,0.000000,-77069.207099
1336.449884,-4441.235652,-9770.718434,-82125.437386
1336.452412,-2664.741391,3849.070898,-77682.083497
1336.454940,1184.329507,5329.482782,-79673.931792
1336.457479,-444.123565,1924.535449,-78448.178995
1336.460017,-2516.700203,0.000000,-78294.959896
1336.462556,-7698.141797,-13471.748144,-79214.274493
1336.465094,-12287.418637,-11103.089130,-78601.398095
1336.467632,-4737.318029,3997.112087,-75230.577904
1336.470171,-5921.647536,-3108.864956,-80133.589091
1336.472709,-296.082377,8142.265362,-79520.712692
1336.475248,3552.988522,-18209.066173,-84883.381178
1336.477786,-1332.370696,-1332.370696,-76303.111601
1336.480325,-592.164754,18209.066173,-77222.426198
1336.482863,6809.894666,2812.782580,-76303.111601
1336.485401,8142.265362,22502.260637,-72779.072310
1336.487940,-1036.288319,-13619.789333,-86415.572174
1336.490478,5625.565159,1332.370696,-79367.493593
1336.493017,6661.853478,16580.613101,-77988.521696
1336.495555,1628.453072,6217.729913,-80440.027290
1336.498094,5921.647536,6809.894666,-76609.549800
1336.500632,148.041188,1332.370696,-77528.864398
1336.503170,-3404.947333,-9030.512492,-81665.780087
1336.505709,1776.494261,3849.070898,-77069.207099
1336.508247,888.247130,9918.759623,-78294.959896
1336.510786,5329.482782,16728.654289,-78907.836294
1336.513324,9474.636058,11251.130318,-81052.903688
1336.515863,9030.512492,-592.164754,-82585.094684
1336.518401,-2368.659014,740.205942,-77375.645298
1336.520939,-1480.411884,7402.059420,-73391.948708
1336.523478,888.247130,10214.842000,-74617.701505
1336.526016,-1776.494261,3108.864956,-79214.274493
1336.528555,-1332.370696,-6365.771101,-82278.656485
1336.531093,-5921.647536,-10807.006753,-84117.285680
1336.533631,-2516.700203,2220.617826,-79214.274493
1336.536170,-6069.688724,-1480.411884,-75996.673402
1336.538708,-4885.359217,2368.659014,-72472.634111
1336.541247,-4737.318029,-3997.112087,-77528.864398
1336.543785,-3997.112087,-9918.759623,-81972.218286
1336.546324,-3701.029710,2960.823768,-79367.493593
1336.548862,-740.205942,1332.370696,-82278.656485
1336.551400,2072.576638,7994.224174,-77835.302597
1336.553939,-1776.494261,-296.082377,-78294.959896
1336.556477,-6365.771101,-17320.819043,-78294.959896
1336.559025,-10807.006753,-9474.636058,-75537.016103
1336.561572,-10955.047942,-2072.576638,-78141.740796
1336.564119,-2072.576638,-148.041188,-79827.150892
1336.566666,1332.370696,11547.212695,-80133.589091
1336.569214,-6217.729913,-14359.995275,-86415.572174
1336.571761,-3997.112087,-3404.947333,-75537.016103
1336.574308,2664.741391,11547.212695,-77682.083497
1336.576855,5181.441594,-444.123565,-75537.016103
1336.579403,9178.553681,31088.649564,-72166.195912
1336.581950,-2664.741391,-11547.212695,-86875.229473
1336.584497,8586.388927,4885.359217,-79827.150892
1336.587045,-1184.329507,1184.329507,-82431.875585
1336.589592,3701.029710,7994.224174,-77835.302597
1336.592139,3849.070898,14656.077652,-75230.577904
1336.594686,3552.988522,-4145.153275,-79214.274493
1336.597234,-1184.329507,-6957.935855,-81972.218286
1336.599781,888.247130,2516.700203,-77988.521696
1336.602328,2220.617826,8734.430116,-79367.493593
1336.604875,8438.347739,17912.983796,-78601.398095
1336.607423,12435.459826,9622.677246,-79980.369991
1336.609970,8142.265362,3108.864956,-80746.465489
1336.612517,1036.288319,-444.123565,-80133.589091
1336.615064,-1924.535449,-888.247130,-77528.864398
1336.617612,296.082377,10658.965565,-74004.825107
1336.620159,-592.164754,13471.748144,-77069.207099
1336.622706,-740.205942,-7994.224174,-82431.875585
1336.625254,-8142.265362,-12731.542202,-82891.532884
1336.627801,-3404.947333,-4589.276840,-81818.999186
1336.630348,-7994.224174,-148.041188,-76149.892501
1336.632895,-3108.864956,6365.771101,-74311.263306
1336.635443,-3108.864956,-4293.194464,-78294.959896
1336.637990,-3849.070898,-6069.688724,-79827.150892
1336.640537,-4293.194464,0.000000,-80133.589091
1336.643084,-4589.276840,-1628.453072,-81359.341888
1336.645632,1628.453072,9770.718434,-77375.645298
1336.648179,-2368.659014,-1332.370696,-79367.493593
1336.650726,-7402.059420,-15100.201217,-79061.055394
1336.653274,-13175.665768,-10807.006753,-77222.426198
1336.655821,-11547.212695,-1776.494261,-79061.055394
1336.658368,-2812.782580,-592.164754,-78294.959896
1336.660929,-2812.782580,12879.583391,-78601.398095
1336.663483,-444.123565,-15248.242405,-83810.847481
1336.666037,0.000000,-6661.853478,-77682.083497
1336.668591,3108.864956,7402.059420,-79980.369991
1336.671145,5033.400406,1776.494261,-76456.330700
1336.673699,8734.430116,29312.155303,-71859.757712
1336.676253,-1480.411884,-1036.288319,-83657.628382
1336.678807,5181.441594,-5773.606348,-81512.560987
1336.681361,5625.565159,8290.306550,-79367.493593
1336.683915,3552.988522,6661.853478,-79367.493593
1336.686469,6513.812290,11695.253884,-76456.330700
1336.689023,-148.041188,2220.617826,-79367.493593
1336.691577,-888.247130,-6513.812290,-81512.560987
1336.694131,592.164754,444.123565,-77988.521696
1336.696685,3108.864956,7994.224174,-77988.521696
1336.699239,9474.636058,15248.242405,-77835.302597
1336.701793,9178.553681,13767.830521,-78754.617194
1336.704347,7550.100608,2072.576638,-82891.532884
1336.706901,148.041188,-3256.906145,-80286.808190
1336.709455,-1036.288319,6365.771101,-77222.426198
1336.712010,888.247130,7254.018232,-75077.358804
1336.714564,-148.041188,6809.894666,-76456.330700
1336.717118,-1628.453072,-5773.606348,-81206.122788
1336.719672,-2664.741391,-18357.107362,-83351.190182
1336.722226,-5773.606348,5329.482782,-80133.589091
1336.724780,-7698.141797,-6957.935855,-80746.465489
1336.727334,-1776.494261,-3997.112087,-74004.825107
1336.729888,-592.164754,4589.276840,-74770.920605
1336.732442,-5773.606348,-14656.077652,-81665.780087
1336.734996,-2812.782580,-444.123565,-79673.931792
1336.737550,0.000000,6957.935855,-79980.369991
1336.740104,148.041188,5181.441594,-79520.712692
1336.742658,-5477.523971,-2960.823768,-78448.178995
1336.745212,-8142.265362,-11695.253884,-77069.207099
1336.747766,-13027.624579,-15988.448347,-78754.617194
1336.750320,-6513.812290,1628.453072,-76149.892501
1336.752874,1184.329507,1776.494261,-80133.589091
1336.755428,-5181.441594,2664.741391,-83197.971083
1336.757982,-1332.370696,3997.112087,-79980.369991
1336.760536,4885.359217,-8586.388927,-82891.532884
1336.763097,4589.276840,11843.295072,-72625.853210
1336.765657,3849.070898,23094.425390,-75690.235202
1336.768217,-296.082377,-6217.729913,-79214.274493
1336.770777,8586.388927,11399.171507,-76456.330700
1336.773337,1332.370696,-9178.553681,-86262.353075
1336.775897,9326.594869,10066.800811,-77375.645298
1336.778458,888.247130,15248.242405,-78601.398095
1336.781018,1628.453072,-1628.453072,-80286.808190
1336.783578,2072.576638,-2960.823768,-77528.864398
1336.786138,-1480.411884,-888.247130,-78754.617194
1336.788698,2960.823768,3404.947333,-78907.836294
1336.791259,9326.594869,16136.489536,-77375.645298
1336.793819,12731.542202,14359.995275,-80286.808190
1336.796379,11251.130318,3997.112087,-82278.656485
1336.798939,444.123565,1184.329507,-79673.931792
1336.801499,-2664.741391,-444.123565,-77835.302597
1336.804059,-1332.370696,3256.906145,-74770.920605
1336.806620,-1480.411884,14211.954086,-74464.482406
1336.809180,888.247130,-3256.906145,-81052.903688
1336.811740,-3849.070898,-17024.736666,-83964.066581
1336.814300,-5477.523971,2072.576638,-80440.027290
1336.816860,-9030.512492,-4441.235652,-81206.122788
1336.819420,-3997.112087,1924.535449,-73545.167808
1336.821981,-3108.864956,1628.453072,-75383.797003
1336.824541,-3552.988522,-6957.935855,-78907.836294
1336.827101,888.247130,-3108.864956,-80440.027290
1336.829661,-3552.988522,-2664.741391,-81512.560987
1336.832221,296.082377,8586.388927,-79367.493593
1336.834781,-3849.070898,296.082377,-78907.836294
1336.837342,-6957.935855,-9622.677246,-77835.302597
1336.839902,-8882.471304,-16728.654289,-78448.178995
1336.842462,-8290.306550,-6069.688724,-77222.426198
1336.845022,1480.411884,1924.535449,-78754.617194
1336.847582,-6069.688724,8882.471304,-80440.027290
1336.850143,2368.659014,-2220.617826,-83504.409282
1336.852703,6513.812290,-15544.324782,-79827.150892
1336.855263,2516.700203,19393.395680,-74158.044206
1336.857823,2516.700203,5773.606348,-79827.150892
1336.860383,5477.523971,11399.171507,-73238.729609
1336.862943,9030.512492,6217.729913,-79061.055394
1336.865479,1480.411884,-5625.565159,-83810.847481
1336.868016,8142.265362,9030.512492,-79061.055394
1336.870552,2516.700203,13175.665768,-78294.959896
1336.873088,1184.329507,1184.329507,-79214.274493
1336.875624,1924.535449,2664.741391,-75230.577904
1336.878160,-3256.906145,-3701.029710,-79367.493593
1336.880696,2072.576638,-1924.535449,-80133.589091
1336.883232,8586.388927,17320.819043,-76915.987999
1336.885768,9030.512492,15396.283594,-80286.808190
1336.888304,10510.924376,4589.276840,-82278.656485
1336.890840,1776.494261,1480.411884,-79367.493593
1336.893376,-3404.947333,2368.659014,-78141.740796
1336.895912,-1184.329507,-3108.864956,-76456.330700
1336.898449,-2516.700203,16876.695478,-72779.072310
1336.900985,-1184.329507,-8290.306550,-82278.656485
1336.903521,-9326.594869,-6069.688724,-79827.150892
1336.906057,296.082377,-1480.411884,-83351.190182
1336.908593,-8882.471304,-11399.171507,-79980.369991
1336.911129,-2664.741391,8734.430116,-74770.920605
1336.913665,-4885.359217,0.000000,-76149.892501
1336.916201,-1776.494261,-5773.606348,-77988.521696
1336.918737,-3552.988522,-148.041188,-79214.274493
1336.921273,-2664.741391,-3997.112087,-81206.122788
1336.923809,3108.864956,9178.553681,-78601.398095
1336.926345,-4441.235652,2664.741391,-79673.931792
1336.928882,-5181.441594,-11103.089130,-78754.617194
1336.931418,-12731.542202,-12139.377449,-76762.768900
1336.933954,-11547.212695,-15396.283594,-78907.836294
1336.936490,-296.082377,4885.359217,-75843.454302
1336.939026,-6957.935855,10955.047942,-80593.246390
1336.941562,2072.576638,740.205942,-82891.532884
1336.944098,7846.182985,-14063.912898,-81972.218286
1336.946634,2220.617826,16432.571912,-74158.044206
1336.949170,592.164754,8290.306550,-78448.178995
1336.951706,5625.565159,8142.265362,-73698.386908
1336.954242,5773.606348,5625.565159,-78907.836294
1336.956778,1480.411884,-2368.659014,-82278.656485
1336.959315,7994.224174,10066.800811,-79520.712692
1336.961851,2960.823768,5329.482782,-80440.027290
