#time,accel_x,accel_y,accel_z
5133.822212,5625.565159,15544.324782,-75690.235202
5133.824776,1036.288319,10807.006753,-76915.987999
5133.827341,3108.864956,9178.553681,-75383.797003
5133.829906,1332.370696,-740.205942,-79214.274493
5133.832470,-3404.947333,-13915.871710,-80593.246390
5133.835035,148.041188,-4737.318029,-78907.836294
5133.837600,-1332.370696,-4293.194464,-81206.122788
5133.840164,444.123565,-6365.771101,-81818.999186
5133.842729,3701.029710,8142.265362,-75690.235202
5133.845294,1480.411884,6069.688724,-77528.864398
5133.847858,3849.070898,14804.118840,-71553.319513
5133.850423,-148.041188,4145.153275,-75383.797003
5133.852988,-444.123565,-5033.400406,-79980.369991
5133.855552,-2220.617826,-5329.482782,-80746.465489
5133.858117,-1776.494261,-11399.171507,-83657.628382
5133.860682,2960.823768,4885.359217,-78294.959896
5133.863246,444.123565,6957.935855,-76303.111601
5133.865811,4145.153275,8882.471304,-73085.510509
5133.868376,2368.659014,12287.418637,-73698.386908
5133.870940,-444.123565,5477.523971,-75996.673402
5133.873505,1776.494261,5773.606348,-75537.016103
5133.876070,-3256.906145,-3256.906145,-81972.218286
5133.878634,-4293.194464,-13619.789333,-84576.942979
5133.881199,-2072.576638,-10807.006753,-78754.617194
5133.883764,296.082377,-8290.306550,-77988.521696
5133.886328,5625.565159,5329.482782,-76303.111601
5133.888893,6809.894666,14063.912898,-72472.634111
5133.891458,2960.823768,11843.295072,-73851.606007
5133.894022,-1184.329507,2220.617826,-77682.083497
5133.896587,-4589.276840,-25315.043216,-87947.763170
5133.899152,-2664.741391,-19097.313304,-83964.066581
5133.901716,-5477.523971,-28423.908173,-83197.971083
5133.904281,-1480.411884,-10955.047942,-77835.302597
5133.906846,2220.617826,14656.077652,-77988.521696
5133.909410,5773.606348,24278.754898,-75230.577904
5133.911975,3108.864956,33753.390955,-74617.701505
5133.914540,4737.318029,2812.782580,-79827.150892
5133.917104,-1036.288319,-1036.288319,-73545.167808
5133.919669,-8734.430116,-25463.084405,-84270.504780
5133.922228,-740.205942,-6957.935855,-79980.369991
5133.924787,-592.164754,-296.082377,-81052.903688
5133.927346,7254.018232,25759.166782,-74617.701505
5133.929906,4145.153275,31680.814318,-75077.358804
5133.932465,3849.070898,25018.960840,-75077.358804
5133.935024,6661.853478,24426.796086,-66956.746525
5133.937583,-444.123565,1332.370696,-77069.207099
5133.940142,-1480.411884,-17912.983796,-85189.819378
5133.942701,-2220.617826,-14063.912898,-81818.999186
5133.945260,-1776.494261,-4145.153275,-82125.437386
5133.947820,1480.411884,11991.336260,-74311.263306
5133.950379,3108.864956,14804.118840,-75077.358804
5133.952938,3108.864956,14508.036463,-77835.302597
5133.955497,1480.411884,17912.983796,-74004.825107
5133.958056,-444.123565,4441.235652,-78294.959896
5133.960615,-1924.535449,-8586.388927,-78754.617194
5133.963175,-4293.194464,4737.318029,-75077.358804
5133.965734,-5773.606348,-29904.320057,-90705.706963
5133.968293,-2072.576638,-7402.059420,-76762.768900
5133.970852,148.041188,3997.112087,-79214.274493
5133.973411,5477.523971,29904.320057,-71859.757712
5133.975970,5625.565159,30052.361245,-75843.454302
5133.978529,4885.359217,10362.883188,-74311.263306
5133.981089,-4293.194464,4293.194464,-74004.825107
5133.983648,-4737.318029,-26647.413912,-86875.229473
5133.986207,-1776.494261,-9178.553681,-80133.589091
5133.988766,-5773.606348,-3552.988522,-80746.465489
5133.991325,3849.070898,14656.077652,-74004.825107
5133.993884,3256.906145,18949.272115,-73698.386908
5133.996444,6513.812290,14804.118840,-77988.521696
5133.999003,5773.606348,27091.537477,-64505.240932
5134.001562,3701.029710,0.000000,-77682.083497
5134.004121,-4589.276840,-15988.448347,-83044.751983
5134.006680,-4145.153275,-29460.196492,-85343.038477
5134.009239,-1628.453072,-11991.336260,-79367.493593
5134.011798,-2812.782580,592.164754,-77528.864398
5134.014358,6957.935855,18061.024985,-72012.976812
5134.016917,3701.029710,24130.713709,-75690.235202
5134.019476,1480.411884,1184.329507,-77988.521696
5134.022035,740.205942,-5181.441594,-77069.207099
5134.024587,-3701.029710,4293.194464,-76609.549800
5134.027139,-1628.453072,-21465.972318,-82585.094684
5134.029690,-5329.482782,-22206.178260,-76762.768900
5134.032242,-5477.523971,-18801.230927,-85955.914876
5134.034794,296.082377,3849.070898,-78294.959896
5134.037346,6365.771101,17024.736666,-75690.235202
5134.039897,1184.329507,16432.571912,-75996.673402
5134.042449,2960.823768,5329.482782,-74158.044206
5134.045001,1036.288319,-13175.665768,-76303.111601
5134.047553,-2812.782580,-11843.295072,-81972.218286
5134.050104,444.123565,-11399.171507,-80133.589091
5134.052656,2220.617826,-5477.523971,-77375.645298
5134.055208,-10510.924376,-5477.523971,-79214.274493
5134.057760,-2368.659014,-11843.295072,-84423.723880
5134.060311,5033.400406,13175.665768,-70480.785816
5134.062863,6365.771101,16728.654289,-72472.634111
5134.065415,5625.565159,18357.107362,-70787.224015
5134.067967,-888.247130,-7550.100608,-79673.931792
5134.070518,-4145.153275,-23538.548956,-87641.324971
5134.073070,-444.123565,-31532.773129,-83964.066581
5134.075622,-1924.535449,-3256.906145,-75996.673402
5134.078174,4441.235652,9622.677246,-79673.931792
5134.080725,6217.729913,27683.702231,-68795.375720
5134.083277,7846.182985,14063.912898,-75537.016103
5134.085829,6661.853478,16728.654289,-73851.606007
5134.088381,4737.318029,17172.777854,-72932.291410
5134.090933,-2368.659014,-7994.224174,-79061.055394
5134.093484,-5921.647536,-17912.983796,-83964.066581
5134.096036,-6217.729913,-17024.736666,-87181.667672
5134.098588,1628.453072,4885.359217,-78754.617194
5134.101140,4737.318029,31828.855506,-72472.634111
5134.103691,8586.388927,30940.608376,-71400.100414
5134.106243,2368.659014,17320.819043,-74464.482406
5134.108795,296.082377,-23834.631332,-81972.218286
5134.111347,-3997.112087,-10807.006753,-78601.398095
5134.113898,-4145.153275,-15396.283594,-87181.667672
5134.116450,-2960.823768,-9770.718434,-82125.437386
5134.119002,-3256.906145,-5921.647536,-80746.465489
5134.121554,0.000000,1628.453072,-77375.645298
5134.124105,3997.112087,16876.695478,-74464.482406
5134.126654,7846.182985,23834.631332,-72472.634111
5134.129202,4885.359217,17764.942608,-72472.634111
5134.131750,-1036.288319,-2516.700203,-80593.246390
5134.134299,-3256.906145,-14359.995275,-87334.886772
5134.136847,-1480.411884,-11695.253884,-81052.903688
5134.139396,-148.041188,5921.647536,-75690.235202
5134.141944,1184.329507,10658.965565,-74464.482406
5134.144492,5773.606348,13027.624579,-73545.167808
5134.147041,3701.029710,13471.748144,-76456.330700
5134.149589,2960.823768,17172.777854,-81052.903688
5134.152137,8142.265362,21169.889941,-75077.358804
5134.154686,740.205942,6957.935855,-72932.291410
5134.157234,-3849.070898,-7105.977043,-79980.369991
5134.159782,-3108.864956,-19689.478057,-83810.847481
5134.162331,-3256.906145,-5329.482782,-81512.560987
5134.164879,2072.576638,12879.583391,-77835.302597
5134.167427,6069.688724,37306.379477,-72472.634111
5134.169976,4737.318029,28868.031738,-75843.454302
5134.172524,5921.647536,24722.878463,-71859.757712
5134.175073,9178.553681,23982.672521,-68795.375720
5134.177621,-4885.359217,-9622.677246,-81665.780087
5134.180169,-1628.453072,-20725.766376,-86109.133975
5134.182718,-3701.029710,-14952.160028,-82125.437386
5134.185266,-4589.276840,-37898.544230,-87794.544071
5134.187814,-5477.523971,-9326.594869,-75843.454302
5134.190363,3256.906145,888.247130,-79367.493593
5134.192911,6809.894666,23834.631332,-70634.004916
5134.195459,5329.482782,25463.084405,-72166.195912
5134.198008,740.205942,1776.494261,-80899.684589
5134.200556,-2368.659014,-20577.725188,-82431.875585
5134.203105,-5477.523971,-27387.619854,-80440.027290
5134.205653,-3552.988522,-18061.024985,-79520.712692
5134.208201,2812.782580,6365.771101,-73851.606007
5134.210750,296.082377,-3849.070898,-79827.150892
5134.213298,2960.823768,12583.501014,-80746.465489
5134.215846,7994.224174,19985.560434,-74770.920605
5134.218395,4145.153275,17024.736666,-69867.909418
5134.220943,-3552.988522,-9030.512492,-77375.645298
5134.223491,-148.041188,-14656.077652,-78141.740796
5134.226040,-4589.276840,-22798.343014,-84117.285680
5134.228588,-4293.194464,-3701.029710,-81206.122788
5134.231134,3404.947333,8290.306550,-79061.055394
5134.233681,3552.988522,15988.448347,-78907.836294
5134.236227,1924.535449,10066.800811,-74311.263306
5134.238773,6069.688724,444.123565,-70174.347617
5134.241320,-6069.688724,-7105.977043,-77682.083497
5134.243866,-3256.906145,1480.411884,-79061.055394
5134.246413,0.000000,-20281.642811,-83044.751983
5134.248959,-2368.659014,-16432.571912,-83044.751983
5134.251506,-4737.318029,-21614.013506,-84117.285680
5134.254052,2960.823768,8438.347739,-72472.634111
5134.256598,4293.194464,17764.942608,-75996.673402
5134.259145,6957.935855,19541.436869,-68182.499322
5134.261691,5921.647536,7846.182985,-74311.263306
5134.264238,-3849.070898,-17468.860231,-85036.600278
5134.266784,-5033.400406,-24426.796086,-80746.465489
5134.269330,-4885.359217,-15544.324782,-82738.313784
5134.271877,-444.123565,-28868.031738,-87334.886772
5134.274423,-5773.606348,-14359.995275,-78601.398095
5134.276970,1776.494261,12139.377449,-75690.235202
5134.279516,10510.924376,34049.473332,-70634.004916
5134.282063,5773.606348,38490.708984,-69101.813920
5134.284609,1776.494261,-2072.576638,-81206.122788
5134.287155,-7105.977043,-20281.642811,-81512.560987
5134.289702,-4145.153275,-22502.260637,-86722.010374
5134.292248,-3997.112087,-148.041188,-80746.465489
5134.294795,3108.864956,17024.736666,-74464.482406
5134.297341,4885.359217,29460.196492,-72472.634111
5134.299888,3552.988522,12435.459826,-75690.235202
5134.302434,3701.029710,6661.853478,-73851.606007
5134.304980,5921.647536,29904.320057,-71553.319513
5134.307527,1184.329507,-1776.494261,-84117.285680
5134.310073,-5033.400406,-13767.830521,-80286.808190
5134.312620,-4737.318029,-21762.054695,-86109.133975
5134.315166,-2368.659014,-296.082377,-77375.645298
5134.317712,2516.700203,19393.395680,-73851.606007
5134.320259,5181.441594,24426.796086,-71553.319513
5134.322805,4441.235652,21614.013506,-76456.330700
5134.325352,-1184.329507,888.247130,-81052.903688
5134.327898,1924.535449,-5181.441594,-79827.150892
5134.330342,-5329.482782,-4885.359217,-81052.903688
5134.332785,-2368.659014,6513.812290,-81052.903688
5134.335229,-3849.070898,-7698.141797,-75843.454302
5134.337672,-148.041188,2516.700203,-82738.313784
5134.340116,-2812.782580,10066.800811,-81359.341888
5134.342559,7402.059420,35529.885216,-72012.976812
5134.345003,5773.606348,18357.107362,-77222.426198
5134.347446,3108.864956,10658.965565,-70480.785816
5134.349890,-1776.494261,-21910.095883,-80899.684589
5134.352333,-2960.823768,-17616.901420,-83810.847481
5134.354777,-1480.411884,-11991.336260,-83351.190182
5134.357220,2368.659014,13619.789333,-76303.111601
5134.359664,3849.070898,32717.102636,-75843.454302
5134.362107,2812.782580,29016.072926,-72932.291410
5134.364551,9474.636058,25463.084405,-70940.443115
5134.366994,1776.494261,15988.448347,-70940.443115
5134.369438,2072.576638,-6217.729913,-78907.836294
5134.371881,-5329.482782,-22354.219448,-82585.094684
5134.374324,-4885.359217,-33457.308578,-87334.886772
5134.376768,1184.329507,-444.123565,-79980.369991
5134.379211,888.247130,8142.265362,-79061.055394
5134.381655,9918.759623,26203.290347,-69867.909418
5134.384098,8882.471304,17468.860231,-72012.976812
5134.386542,1628.453072,-3552.988522,-77069.207099
5134.388985,-3404.947333,-29756.278868,-81052.903688
5134.391429,-5181.441594,-17172.777854,-76456.330700
5134.393872,-5625.565159,-27831.743419,-90552.487864
5134.396316,-2812.782580,-17024.736666,-79367.493593
5134.398759,2960.823768,-5477.523971,-80133.589091
5134.401203,3256.906145,12583.501014,-73851.606007
5134.403646,11103.089130,25611.125593,-69561.471218
5134.406090,3997.112087,8142.265362,-75996.673402
5134.408533,4293.194464,-6365.771101,-77375.645298
5134.410977,-7698.141797,-15840.407159,-81972.218286
5134.413420,-3849.070898,-22650.301825,-88407.420469
5134.415864,-592.164754,4589.276840,-76609.549800
5134.418307,2664.741391,5329.482782,-76456.330700
5134.420751,9326.594869,15396.283594,-70480.785816
5134.423194,2516.700203,14211.954086,-72319.415011
5134.425638,3849.070898,9770.718434,-78754.617194
5134.428112,1776.494261,9918.759623,-72932.291410
5134.430586,1924.535449,-6513.812290,-79980.369991
5134.433060,-5033.400406,-22798.343014,-85496.257577
5134.435535,-4293.194464,-13915.871710,-79827.150892
5134.438009,-2220.617826,-13619.789333,-82125.437386
5134.440483,5625.565159,7402.059420,-72166.195912
5134.442957,4441.235652,25759.166782,-73698.386908
5134.445431,10510.924376,6069.688724,-75996.673402
5134.447905,1480.411884,10214.842000,-72472.634111
5134.450379,-9474.636058,-22502.260637,-89786.392366
5134.452854,-3849.070898,-18061.024985,-79827.150892
5134.455328,-2072.576638,-32272.979071,-80746.465489
5134.457802,-2516.700203,-3701.029710,-79520.712692
5134.460276,-5921.647536,8882.471304,-80593.246390
5134.462750,9326.594869,25018.960840,-73085.510509
5134.465224,6365.771101,23538.548956,-75537.016103
5134.467699,4293.194464,16136.489536,-75077.358804
5134.470173,1628.453072,-740.205942,-77682.083497
5134.472647,-3552.988522,-21465.972318,-82125.437386
5134.475121,-3701.029710,-7698.141797,-79827.150892
5134.477595,-1184.329507,-17320.819043,-84883.381178
5134.480069,6661.853478,28275.866984,-72625.853210
5134.482544,-2220.617826,17468.860231,-76609.549800
5134.485018,3108.864956,27387.619854,-72012.976812
5134.487492,6809.894666,24870.919651,-74004.825107
5134.489966,1480.411884,4737.318029,-76149.892501
5134.492440,1036.288319,-1184.329507,-78141.740796
5134.494914,-5329.482782,-16580.613101,-83657.628382
5134.497388,-4589.276840,-3997.112087,-80593.246390
5134.499863,-3256.906145,0.000000,-82431.875585
5134.502337,7698.141797,5773.606348,-72932.291410
5134.504811,5773.606348,25018.960840,-72166.195912
5134.507307,-1332.370696,4293.194464,-80440.027290
5134.509803,4885.359217,10362.883188,-73851.606007
5134.512300,2812.782580,15692.365970,-77375.645298
5134.514796,3997.112087,-6957.935855,-81359.341888
5134.517292,-4293.194464,296.082377,-76456.330700
5134.519788,-1628.453072,-14359.995275,-89326.735067
5134.522285,-296.082377,3256.906145,-74004.825107
5134.524781,3997.112087,14359.995275,-74924.139704
5134.527277,4589.276840,24130.713709,-73085.510509
5134.529773,6365.771101,24722.878463,-74158.044206
5134.532270,444.123565,-6513.812290,-80133.589091
5134.534766,-5329.482782,-2812.782580,-78907.836294
5134.537262,-7254.018232,-20873.807564,-87488.105872
5134.539758,-148.041188,1036.288319,-79061.055394
5134.542255,-3404.947333,-15692.365970,-80440.027290
5134.544751,1628.453072,-3701.029710,-76149.892501
5134.547247,3404.947333,27091.537477,-73391.948708
5134.549743,8290.306550,11991.336260,-75996.673402
5134.552240,7994.224174,20429.683999,-70787.224015
5134.554736,-5921.647536,-19689.478057,-86875.229473
5134.557232,-2220.617826,-26351.331535,-82891.532884
5134.559728,-4589.276840,-19097.313304,-82431.875585
5134.562224,-2960.823768,-1480.411884,-75996.673402
5134.564721,6661.853478,15100.201217,-72625.853210
5134.567217,5033.400406,27091.537477,-74158.044206
5134.569713,2072.576638,7698.141797,-77682.083497
5134.572209,7254.018232,19393.395680,-70480.785816
5134.574706,444.123565,-740.205942,-78448.178995
5134.577202,1924.535449,5477.523971,-74770.920605
5134.579698,-592.164754,-2220.617826,-75690.235202
5134.582194,-6217.729913,-27979.784608,-83504.409282
5134.584691,-2664.741391,-19393.395680,-82278.656485
5134.587187,-3404.947333,-1776.494261,-82278.656485
5134.589683,5181.441594,9178.553681,-77528.864398
5134.592179,3552.988522,14804.118840,-73391.948708
5134.594676,1036.288319,9326.594869,-74464.482406
5134.597172,444.123565,-3552.988522,-74924.139704
5134.599668,-296.082377,-15988.448347,-77528.864398
5134.602164,-3552.988522,-18801.230927,-81359.341888
5134.604661,-3701.029710,-21762.054695,-84883.381178
5134.607173,-4145.153275,-18653.189738,-82431.875585
5134.609686,-740.205942,-13471.748144,-82738.313784
5134.612198,4441.235652,13027.624579,-73545.167808
5134.614711,9326.594869,14656.077652,-73545.167808
5134.617224,3256.906145,17764.942608,-70940.443115
5134.619736,2664.741391,-296.082377,-78907.836294
5134.622249,-5329.482782,-22798.343014,-81512.560987
5134.624762,-3108.864956,-20873.807564,-86262.353075
5134.627274,-6661.853478,-21465.972318,-84117.285680
5134.629787,4441.235652,9326.594869,-73545.167808
5134.632300,8438.347739,35974.008781,-77835.302597
5134.634812,3552.988522,29016.072926,-75077.358804
5134.637325,5033.400406,27091.537477,-74464.482406
5134.639837,12139.377449,16728.654289,-75077.358804
5134.642350,0.000000,-3701.029710,-78601.398095
5134.644863,-3701.029710,-15544.324782,-78754.617194
5134.647375,-6217.729913,-13915.871710,-83810.847481
5134.649888,-2812.782580,-9622.677246,-82891.532884
5134.652401,5921.647536,21910.095883,-75996.673402
5134.654913,3849.070898,28127.825796,-74311.263306
5134.657426,5181.441594,30200.402434,-68948.594820
5134.659939,-1776.494261,2664.741391,-77528.864398
5134.662451,-2220.617826,-21762.054695,-81818.999186
5134.664964,2812.782580,-13619.789333,-79367.493593
5134.667476,-6513.812290,-13471.748144,-83197.971083
5134.669989,-7254.018232,-3701.029710,-86415.572174
5134.672502,1480.411884,2220.617826,-77069.207099
5134.675014,5921.647536,14359.995275,-72932.291410
5134.677527,1036.288319,16876.695478,-72012.976812
5134.680040,1480.411884,12435.459826,-75230.577904
5134.682552,1480.411884,148.041188,-81972.218286
5134.685065,-2220.617826,-888.247130,-78294.959896
5134.687577,-3108.864956,-7105.977043,-81206.122788
5134.690090,-2516.700203,3849.070898,-82278.656485
5134.692603,888.247130,14063.912898,-79214.274493
5134.695115,-444.123565,-8142.265362,-79673.931792
5134.697628,5181.441594,25611.125593,-71400.100414
5134.700141,4737.318029,17912.983796,-76609.549800
5134.702653,5773.606348,24870.919651,-69408.252119
5134.705166,-1628.453072,444.123565,-82891.532884
5134.707691,-1480.411884,-17024.736666,-83504.409282
5134.710217,-6217.729913,-10214.842000,-82278.656485
5134.712743,-4589.276840,-12435.459826,-82891.532884
5134.715268,4737.318029,25907.207970,-69714.690318
5134.717794,7402.059420,10807.006753,-74617.701505
5134.720319,2960.823768,15988.448347,-67569.622924
5134.722845,3997.112087,-3701.029710,-83044.751983
5134.725370,4145.153275,592.164754,-82125.437386
5134.727896,-148.041188,-3108.864956,-76915.987999
5134.730422,-6069.688724,-34937.720462,-84576.942979
5134.732947,-3256.906145,-21317.931130,-79827.150892
5134.735473,-2960.823768,-5773.606348,-76762.768900
5134.737998,6957.935855,11991.336260,-73851.606007
5134.740524,8734.430116,31532.773129,-69408.252119
5134.743049,2812.782580,11399.171507,-81206.122788
5134.745575,3108.864956,-15248.242405,-83197.971083
5134.748100,-1480.411884,-27683.702231,-80440.027290
5134.750626,-6365.771101,-21910.095883,-82431.875585
5134.753152,-2072.576638,-5921.647536,-76915.987999
5134.755677,-1184.329507,-14508.036463,-79827.150892
5134.758203,740.205942,6661.853478,-79214.274493
5134.760728,2664.741391,16136.489536,-76303.111601
5134.763254,2812.782580,13471.748144,-78294.959896
5134.765779,3108.864956,3997.112087,-77069.207099
5134.768305,0.000000,-9474.636058,-75230.577904
5134.770831,-1776.494261,-18357.107362,-79214.274493
5134.773356,-1184.329507,-23686.590144,-81818.999186
5134.775882,-1184.329507,-1924.535449,-79061.055394
5134.778407,3997.112087,4145.153275,-81972.218286
5134.780933,7994.224174,22502.260637,-73391.948708
5134.783458,4885.359217,13323.706956,-72932.291410
5134.785984,3108.864956,16580.613101,-69101.813920
5134.788509,4293.194464,13619.789333,-73391.948708
5134.791035,-2220.617826,-16284.530724,-80746.465489
5134.793561,-4885.359217,-18357.107362,-80440.027290
5134.796086,-4737.318029,-22502.260637,-88407.420469
5134.798612,-592.164754,-10362.883188,-78907.836294
5134.801137,8290.306550,29904.320057,-70940.443115
5134.803663,4589.276840,36862.255912,-72166.195912
5134.806188,7402.059420,19837.519246,-73851.606007
5134.808722,-3997.112087,-12287.418637,-81665.780087
5134.811256,-2960.823768,-22946.384202,-84270.504780
5134.813790,-6809.894666,-10362.883188,-80899.684589
5134.816324,-6217.729913,-26499.372724,-85496.257577
5134.818858,-2368.659014,-296.082377,-79214.274493
5134.821392,1480.411884,-148.041188,-82891.532884
5134.823926,9622.677246,30496.484810,-72625.853210
5134.826460,5329.482782,27091.537477,-74924.139704
5134.828994,4737.318029,14508.036463,-71553.319513
5134.831528,-4145.153275,-1480.411884,-78601.398095
5134.834062,-3849.070898,-34641.638086,-86875.229473
5134.836596,-3256.906145,-4885.359217,-79827.150892
5134.839130,-1480.411884,8734.430116,-83351.190182
5134.841664,5329.482782,22206.178260,-73391.948708
5134.844198,8290.306550,16284.530724,-71859.757712
5134.846732,-5625.565159,17024.736666,-72932.291410
5134.849266,-4589.276840,5329.482782,-79367.493593
5134.851800,5625.565159,11251.130318,-73851.606007
5134.854334,-1036.288319,3849.070898,-77528.864398
5134.856868,-4293.194464,-5625.565159,-82125.437386
5134.859402,-740.205942,-2220.617826,-81665.780087
5134.861936,-4737.318029,-888.247130,-84883.381178
5134.864470,4589.276840,16876.695478,-73085.510509
5134.867004,5329.482782,26351.331535,-69255.033019
5134.869538,2960.823768,18653.189738,-74617.701505
5134.872072,-1332.370696,740.205942,-74158.044206
5134.874606,-2220.617826,-15396.283594,-85036.600278
5134.877140,-4145.153275,-11547.212695,-85802.695776
5134.879674,-4737.318029,-17468.860231,-84883.381178
5134.882208,-7994.224174,-16580.613101,-82431.875585
5134.884742,1480.411884,3108.864956,-74004.825107
5134.887276,6513.812290,18209.066173,-71553.319513
5134.889810,6957.935855,13767.830521,-71400.100414
5134.892344,3701.029710,14656.077652,-76762.768900
5134.894878,-2812.782580,-18949.272115,-87334.886772
5134.897412,-4441.235652,-22798.343014,-85496.257577
5134.899945,-4885.359217,-21021.848753,-82585.094684
5134.902479,888.247130,-888.247130,-73085.510509
5134.905013,2664.741391,16580.613101,-71400.100414
5134.907547,6365.771101,17024.736666,-75230.577904
5134.910088,6365.771101,22798.343014,-77835.302597
5134.912629,8142.265362,21021.848753,-74311.263306
5134.915170,1184.329507,-9178.553681,-82278.656485
5134.917711,-1332.370696,-20725.766376,-78907.836294
5134.920251,-4293.194464,-20133.601622,-78754.617194
5134.922792,-2664.741391,-9178.553681,-77069.207099
5134.925333,3108.864956,4145.153275,-77375.645298
5134.927874,1332.370696,15396.283594,-79520.712692
5134.930414,3404.947333,15840.407159,-77682.083497
5134.932955,3256.906145,4885.359217,-76762.768900
5134.935496,-4737.318029,-7105.977043,-76303.111601
5134.938037,1480.411884,-3552.988522,-75383.797003
5134.940577,-1480.411884,-19393.395680,-78141.740796
5134.943118,-2664.741391,-13471.748144,-81972.218286
5134.945659,-2368.659014,-19837.519246,-85496.257577
5134.948200,3404.947333,3997.112087,-77682.083497
5134.950741,5477.523971,11695.253884,-76149.892501
5134.953281,3701.029710,22502.260637,-69867.909418
5134.955822,3404.947333,3701.029710,-77682.083497
5134.958363,-2220.617826,-11103.089130,-75843.454302
5134.960904,-4589.276840,-19837.519246,-85955.914876
5134.963444,-6365.771101,-28127.825796,-87181.667672
5134.965985,1480.411884,-5477.523971,-76762.768900
5134.968526,8734.430116,31236.690752,-77835.302597
5134.971067,-1628.453072,21614.013506,-77988.521696
5134.973608,9474.636058,30940.608376,-74924.139704
5134.976148,6365.771101,21465.972318,-72166.195912
5134.978689,-592.164754,8290.306550,-74311.263306
5134.981230,-3849.070898,-12731.542202,-82278.656485
5134.983771,-3849.070898,-23686.590144,-82585.094684
5134.986311,-3849.070898,-888.247130,-81818.999186
5134.988852,-5329.482782,-22650.301825,-87488.105872
5134.991393,-2368.659014,3256.906145,-75843.454302
5134.993934,1924.535449,27387.619854,-73851.606007
5134.996475,5329.482782,29460.196492,-74004.825107
5134.999015,4737.318029,19689.478057,-72012.976812
5135.001556,6957.935855,17468.860231,-74004.825107
5135.004097,4737.318029,15100.201217,-75843.454302
5135.006638,-444.123565,-2664.741391,-79827.150892
5135.009178,-3849.070898,-11103.089130,-84883.381178
5135.011725,-2368.659014,-9770.718434,-79673.931792
5135.014271,2072.576638,3997.112087,-77528.864398
5135.016818,1036.288319,13175.665768,-74924.139704
5135.019365,4293.194464,20725.766376,-75077.358804
5135.021911,2516.700203,22354.219448,-76149.892501
5135.024458,444.123565,9474.636058,-75996.673402
5135.027004,-3701.029710,-3404.947333,-80593.246390
5135.029551,-3108.864956,-12287.418637,-87488.105872
5135.032097,-2960.823768,-22206.178260,-84576.942979
5135.034644,-4145.153275,-15988.448347,-76762.768900
5135.037190,-4145.153275,1332.370696,-80593.246390
5135.039737,4737.318029,17616.901420,-78448.178995
5135.042283,5181.441594,34789.679274,-73391.948708
5135.044830,3404.947333,15840.407159,-78294.959896
5135.047377,148.041188,6957.935855,-73391.948708
5135.049923,-7698.141797,-33013.185013,-81359.341888
5135.052470,-6809.894666,-23686.590144,-81052.903688
5135.055016,-1332.370696,-16728.654289,-82738.313784
5135.057563,1776.494261,7550.100608,-74464.482406
5135.060109,3552.988522,29460.196492,-77375.645298
5135.062656,5329.482782,13767.830521,-77682.083497
5135.065202,6957.935855,20429.683999,-69867.909418
5135.067749,2664.741391,6069.688724,-71859.757712
5135.070295,2072.576638,-16580.613101,-75996.673402
5135.072842,-5033.400406,-11991.336260,-81512.560987
5135.075388,-3997.112087,-25018.960840,-91931.459760
5135.077935,2664.741391,888.247130,-77069.207099
5135.080482,-592.164754,3404.947333,-77835.302597
5135.083028,6809.894666,14804.118840,-71246.881314
5135.085575,4737.318029,11547.212695,-70327.566716
5135.088121,-1036.288319,4145.153275,-75537.016103
5135.090668,-740.205942,-3849.070898,-81972.218286
5135.093214,3108.864956,2368.659014,-82738.313784
5135.095761,-3849.070898,-12435.459826,-84117.285680
5135.098307,-592.164754,-14508.036463,-77375.645298
5135.100854,-592.164754,-13323.706956,-76303.111601
5135.103400,1924.535449,-5773.606348,-76456.330700
5135.105947,3552.988522,12731.542202,-76149.892501
5135.108494,5329.482782,10807.006753,-78448.178995
5135.111040,2072.576638,13471.748144,-73238.729609
5135.113591,-2072.576638,-12583.501014,-82891.532884
5135.116143,-6069.688724,-31384.731941,-82278.656485
5135.118694,-3256.906145,-22650.301825,-80899.684589
5135.121246,-888.247130,-2960.823768,-79061.055394
5135.123797,8438.347739,22650.301825,-74004.825107
5135.126349,1332.370696,6809.894666,-77528.864398
5135.128900,8586.388927,32124.937883,-72625.853210
5135.131451,2960.823768,37010.297100,-70174.347617
5135.134003,3701.029710,1924.535449,-78601.398095
5135.136554,-3849.070898,-18505.148550,-82738.313784
5135.139106,-3404.947333,-23686.590144,-83964.066581
5135.141657,-3404.947333,-1184.329507,-78141.740796
5135.144209,1628.453072,20133.601622,-76149.892501
5135.146760,5477.523971,24278.754898,-73698.386908
5135.149311,5477.523971,22502.260637,-74158.044206
5135.151863,4589.276840,1332.370696,-79520.712692
5135.154414,-1036.288319,-6957.935855,-73085.510509
5135.156966,296.082377,12879.583391,-74617.701505
5135.159517,-5477.523971,-13619.789333,-84730.162079
5135.162069,-1332.370696,-18209.066173,-80133.589091
5135.164620,-2960.823768,-5773.606348,-80746.465489
5135.167171,1480.411884,10658.965565,-78907.836294
5135.169723,4441.235652,23834.631332,-71553.319513
5135.172274,5033.400406,17024.736666,-76303.111601
5135.174826,1628.453072,10066.800811,-76915.987999
5135.177377,-444.123565,-1332.370696,-79980.369991
5135.179929,-444.123565,-9622.677246,-81206.122788
5135.182480,-740.205942,-1184.329507,-77375.645298
5135.185031,-3108.864956,2812.782580,-80593.246390
5135.187583,-5033.400406,-10658.965565,-83351.190182
5135.190134,2072.576638,15544.324782,-80286.808190
5135.192686,1776.494261,7698.141797,-79367.493593
5135.195237,7402.059420,29460.196492,-65730.993728
5135.197789,3256.906145,17912.983796,-74924.139704
5135.200340,1036.288319,-3997.112087,-76915.987999
5135.202891,-4885.359217,-13915.871710,-82738.313784
5135.205443,-4293.194464,-21021.848753,-88713.858668
5135.207994,-1184.329507,3108.864956,-78294.959896
5135.210546,6365.771101,8586.388927,-74158.044206
5135.213097,5033.400406,27683.702231,-68029.280222
5135.215651,6957.935855,592.164754,-75537.016103
5135.218204,5773.606348,19541.436869,-70174.347617
5135.220758,4293.194464,9918.759623,-80133.589091
5135.223312,-5773.606348,-16580.613101,-83044.751983
5135.225865,-2812.782580,-26647.413912,-82738.313784
5135.228419,-3108.864956,-20281.642811,-79214.274493
5135.230973,592.164754,-5625.565159,-73391.948708
5135.233526,5033.400406,20725.766376,-74311.263306
5135.236080,9326.594869,17024.736666,-79520.712692
5135.238634,4441.235652,17616.901420,-75537.016103
5135.241188,-592.164754,-13323.706956,-86262.353075
5135.243741,-3849.070898,-23538.548956,-76149.892501
5135.246295,-4145.153275,-23538.548956,-75230.577904
5135.248849,-3552.988522,-14804.118840,-81206.122788
5135.251402,-2812.782580,-10510.924376,-86415.572174
5135.253956,1332.370696,-5033.400406,-81665.780087
5135.256510,148.041188,10214.842000,-79061.055394
5135.259063,740.205942,11547.212695,-74158.044206
5135.261617,3552.988522,1480.411884,-70021.128517
5135.264171,-740.205942,-4885.359217,-73085.510509
5135.266724,-3701.029710,-28571.949361,-82738.313784
5135.269278,-3849.070898,-17764.942608,-82738.313784
5135.271832,-2516.700203,-6217.729913,-87488.105872
5135.274386,1480.411884,6809.894666,-75996.673402
5135.276939,7105.977043,24130.713709,-72319.415011
5135.279493,2072.576638,1480.411884,-76456.330700
5135.282047,7994.224174,23390.507767,-66037.431928
5135.284600,1184.329507,14063.912898,-75230.577904
5135.287154,0.000000,-7698.141797,-83197.971083
5135.289708,-3997.112087,148.041188,-80593.246390
5135.292261,-7994.224174,-16432.571912,-88713.858668
5135.294815,-2516.700203,-2368.659014,-77988.521696
5135.297369,1332.370696,10807.006753,-72012.976812
5135.299922,4885.359217,29460.196492,-68488.937521
5135.302476,4441.235652,30644.525999,-74464.482406
5135.305030,2812.782580,740.205942,-81359.341888
5135.307583,-3256.906145,-8586.388927,-84730.162079
5135.310137,-3552.988522,-13767.830521,-81818.999186
5135.312691,-2220.617826,-18653.189738,-78141.740796
5135.315245,-2664.741391,-4293.194464,-79673.931792
5135.317801,-3997.112087,-888.247130,-77528.864398
5135.320357,1776.494261,30348.443622,-73698.386908
5135.322913,2516.700203,12435.459826,-83504.409282
5135.325469,6513.812290,21169.889941,-73391.948708
5135.328025,-592.164754,7698.141797,-75690.235202
5135.330581,-1628.453072,-7254.018232,-77835.302597
5135.333137,-592.164754,-7698.141797,-77835.302597
5135.335694,-4145.153275,-9770.718434,-82891.532884
5135.338250,1184.329507,9918.759623,-79520.712692
5135.340806,-2368.659014,7550.100608,-78448.178995
5135.343362,2072.576638,15248.242405,-77375.645298
5135.345918,4589.276840,33753.390955,-70787.224015
5135.348474,5921.647536,14063.912898,-74004.825107
5135.351030,2664.741391,5033.400406,-75230.577904
5135.353587,-4441.235652,-13767.830521,-86568.791274
5135.356143,-888.247130,-14359.995275,-81052.903688
5135.358699,-3997.112087,296.082377,-77682.083497
5135.361255,1184.329507,2960.823768,-83044.751983
5135.363811,8586.388927,27091.537477,-70480.785816
5135.366367,8438.347739,17172.777854,-73085.510509
5135.368923,5033.400406,7846.182985,-72932.291410
5135.371480,6661.853478,10066.800811,-73391.948708
5135.374036,2072.576638,-4145.153275,-77682.083497
5135.376592,-4589.276840,-26203.290347,-87947.763170
5135.379148,-6957.935855,-18653.189738,-85343.038477
5135.381704,-2368.659014,-10362.883188,-80286.808190
5135.384260,3849.070898,11695.253884,-72319.415011
5135.386816,4885.359217,18209.066173,-70787.224015
5135.389372,6809.894666,5033.400406,-73238.729609
5135.391929,2812.782580,5181.441594,-77375.645298
5135.394485,-2516.700203,-16284.530724,-87028.448573
5135.397041,-5625.565159,-15544.324782,-83504.409282
5135.399597,-5921.647536,-16728.654289,-85036.600278
5135.402153,-4589.276840,-19837.519246,-80133.589091
5135.404709,-3404.947333,-17764.942608,-76762.768900
5135.407265,-1776.494261,-13915.871710,-77222.426198
5135.409822,-2960.823768,-3997.112087,-84883.381178
5135.412378,-2072.576638,-444.123565,-86109.133975
5135.414934,5773.606348,8142.265362,-74924.139704
5135.417490,3404.947333,21614.013506,-69101.813920
5135.420047,1924.535449,-15396.283594,-75537.016103
5135.422603,-148.041188,-14656.077652,-69714.690318
5135.425160,-5329.482782,-29904.320057,-90552.487864
5135.427717,-10066.800811,-14804.118840,-85955.914876
5135.430273,888.247130,9622.677246,-81972.218286
5135.432830,5181.441594,20281.642811,-75230.577904
5135.435387,5477.523971,33901.432144,-66650.308326
5135.437943,5625.565159,18061.024985,-70327.566716
5135.440500,7402.059420,11399.171507,-69867.909418
5135.443057,2516.700203,13471.748144,-77069.207099
5135.445613,-7994.224174,-5329.482782,-88867.077768
5135.448170,-2664.741391,-19245.354492,-89786.392366
5135.450726,-888.247130,-10066.800811,-79827.150892
5135.453283,296.082377,14211.954086,-72625.853210
5135.455840,6809.894666,33901.432144,-68642.156621
5135.458396,12435.459826,26203.290347,-66343.870127
5135.460953,1924.535449,13915.871710,-79673.931792
5135.463510,-2368.659014,-25611.125593,-95455.499051
5135.466066,-4441.235652,-18505.148550,-81512.560987
5135.468623,-4145.153275,-20577.725188,-81818.999186
5135.471180,-3108.864956,-7698.141797,-74770.920605
5135.473736,444.123565,4885.359217,-75077.358804
5135.476293,2960.823768,14211.954086,-79827.150892
5135.478850,5625.565159,25315.043216,-76609.549800
5135.481406,3997.112087,18505.148550,-77222.426198
5135.483963,2220.617826,5033.400406,-78754.617194
5135.486520,-2516.700203,-8438.347739,-77682.083497
5135.489076,-148.041188,-12287.418637,-78448.178995
5135.491633,-740.205942,-4441.235652,-77988.521696
5135.494190,592.164754,12435.459826,-81206.122788
5135.496746,4441.235652,23834.631332,-79520.712692
5135.499303,2960.823768,27683.702231,-75996.673402
5135.501860,1776.494261,17320.819043,-74770.920605
5135.504416,10066.800811,16284.530724,-69561.471218
5135.506973,296.082377,1332.370696,-78754.617194
5135.509529,-1332.370696,-13027.624579,-82738.313784
5135.512086,-3108.864956,-5181.441594,-83504.409282
5135.514643,-5033.400406,-6069.688724,-85189.819378
5135.517199,2220.617826,10955.047942,-73391.948708
5135.519756,5033.400406,15396.283594,-73238.729609
5135.522313,4293.194464,13619.789333,-70634.004916
5135.524871,3849.070898,-3701.029710,-74004.825107
5135.527428,-1036.288319,-10955.047942,-72012.976812
5135.529985,-444.123565,-13027.624579,-89173.515967
5135.532542,-2516.700203,-21465.972318,-81665.780087
5135.535099,-6069.688724,-29756.278868,-83351.190182
5135.537657,444.123565,-5329.482782,-73391.948708
5135.540214,1776.494261,12139.377449,-70327.566716
5135.542771,5773.606348,15396.283594,-75383.797003
5135.545328,5625.565159,16876.695478,-77222.426198
5135.547885,-1776.494261,-5033.400406,-83351.190182
5135.550443,-3256.906145,-16284.530724,-82431.875585
5135.553000,-5625.565159,-19985.560434,-81052.903688
5135.555557,-4145.153275,-15248.242405,-73391.948708
5135.558114,1480.411884,-1628.453072,-73238.729609
5135.560671,-148.041188,-2516.700203,-81512.560987
5135.563229,888.247130,9178.553681,-82125.437386
5135.565786,2072.576638,13175.665768,-77528.864398
5135.568343,3552.988522,10362.883188,-75996.673402
5135.570900,0.000000,-7550.100608,-74617.701505
5135.573457,-1628.453072,-24130.713709,-75843.454302
5135.576015,-5033.400406,-27387.619854,-81359.341888
5135.578572,-5033.400406,-10658.965565,-83810.847481
5135.581129,-592.164754,3552.988522,-81052.903688
5135.583686,7402.059420,29312.155303,-73085.510509
5135.586243,4441.235652,21021.848753,-74617.701505
5135.588801,2960.823768,-148.041188,-72472.634111
5135.591358,7402.059420,6809.894666,-68335.718422
5135.593915,-148.041188,1480.411884,-79673.931792
5135.596472,-7846.182985,-5033.400406,-85496.257577
5135.599029,-3997.112087,-10807.006753,-85649.476676
5135.601587,-5181.441594,888.247130,-83197.971083
5135.604144,5625.565159,13915.871710,-74311.263306
5135.606701,5329.482782,31532.773129,-63279.488135
5135.609258,6661.853478,23834.631332,-73238.729609
5135.611815,1184.329507,296.082377,-78754.617194
5135.614373,-3552.988522,-16284.530724,-89326.735067
5135.616930,-7105.977043,-22946.384202,-89173.515967
5135.619487,-4737.318029,3997.112087,-75537.016103
5135.622044,-3849.070898,-10955.047942,-77375.645298
5135.624602,1184.329507,12879.583391,-72779.072310
5135.627160,4441.235652,20281.642811,-76915.987999
5135.629718,7402.059420,17468.860231,-76303.111601
5135.632276,3552.988522,16136.489536,-78601.398095
5135.634834,-2664.741391,-888.247130,-84730.162079
5135.637392,740.205942,-8142.265362,-75077.358804
5135.639950,-2664.741391,-6513.812290,-73851.606007
5135.642508,-5477.523971,592.164754,-81665.780087
5135.645066,1480.411884,11103.089130,-81206.122788
5135.647624,3997.112087,33457.308578,-75537.016103
5135.650183,3552.988522,26499.372724,-76915.987999
5135.652741,10658.965565,23686.590144,-69867.909418
5135.655299,2960.823768,4737.318029,-73545.167808
5135.657857,-3701.029710,-3997.112087,-78294.959896
5135.660415,-1184.329507,-10066.800811,-82125.437386
5135.662973,-6661.853478,-6513.812290,-85036.600278
5135.665531,-3256.906145,6809.894666,-82125.437386
5135.668089,3404.947333,10807.006753,-78141.740796
5135.670647,6069.688724,12583.501014,-69408.252119
5135.673205,296.082377,4885.359217,-69255.033019
5135.675763,4441.235652,-3108.864956,-75230.577904
5135.678321,-7105.977043,-19689.478057,-83504.409282
5135.680879,-5477.523971,-18505.148550,-89173.515967
5135.683437,-8290.306550,-26351.331535,-88407.420469
5135.685995,-2960.823768,-28275.866984,-82431.875585
5135.688553,1184.329507,3404.947333,-66956.746525
5135.691111,2664.741391,11991.336260,-69408.252119
5135.693669,7105.977043,19837.519246,-73085.510509
5135.696227,2960.823768,8142.265362,-82431.875585
5135.698785,-888.247130,-8438.347739,-87028.448573
5135.701343,-1776.494261,-10066.800811,-83197.971083
5135.703901,-5329.482782,-21910.095883,-78294.959896
5135.706460,1036.288319,-6661.853478,-68948.594820
5135.709018,444.123565,2220.617826,-74004.825107
5135.711577,4589.276840,11843.295072,-75843.454302
5135.714136,4293.194464,14656.077652,-80593.246390
5135.716695,2072.576638,17172.777854,-79673.931792
5135.719253,4293.194464,-1480.411884,-77835.302597
5135.721812,1184.329507,-14952.160028,-68488.937521
5135.724371,-2664.741391,-33013.185013,-79367.493593
5135.726930,-9178.553681,-22058.137072,-83964.066581
5135.729488,-1776.494261,-9474.636058,-82431.875585
5135.732047,3256.906145,27683.702231,-78141.740796
5135.734606,5181.441594,25018.960840,-77222.426198
5135.737164,9770.718434,15100.201217,-66343.870127
5135.739723,-2812.782580,-20873.807564,-76456.330700
5135.742282,-3404.947333,-25018.960840,-80133.589091
5135.744841,-10362.883188,5329.482782,-83197.971083
5135.747399,-3701.029710,-18061.024985,-89939.611465
5135.749958,-8142.265362,-7550.100608,-84730.162079
5135.752517,4293.194464,296.082377,-78294.959896
5135.755076,4293.194464,29904.320057,-61747.297139
5135.757634,8734.430116,33013.185013,-68182.499322
5135.760193,3701.029710,12583.501014,-76915.987999
5135.762752,-1332.370696,-10066.800811,-87334.886772
5135.765311,-8290.306550,-24574.837274,-91778.240660
5135.767869,-888.247130,-5625.565159,-81052.903688
5135.770428,-2516.700203,7698.141797,-70327.566716
5135.772987,7105.977043,25018.960840,-65424.555529
5135.775545,1628.453072,12287.418637,-77069.207099
5135.778104,5477.523971,14508.036463,-82738.313784
5135.780663,4885.359217,23538.548956,-79673.931792
5135.783222,3108.864956,15544.324782,-78448.178995
5135.785780,-592.164754,1184.329507,-73851.606007
5135.788339,-2220.617826,-15544.324782,-75230.577904
5135.790898,-1924.535449,-11251.130318,-81206.122788
5135.793457,-1036.288319,6661.853478,-81359.341888
5135.796015,3701.029710,33901.432144,-78754.617194
5135.798574,3997.112087,35381.844028,-77222.426198
5135.801133,5921.647536,12435.459826,-71246.881314
5135.803692,-4441.235652,-3256.906145,-74158.044206
5135.806250,-2664.741391,-33013.185013,-77375.645298
5135.808758,740.205942,-1628.453072,-78294.959896
5135.811267,-3404.947333,-11695.253884,-90092.830565
5135.813775,-9178.553681,-10362.883188,-85955.914876
5135.816283,1628.453072,3849.070898,-76915.987999
5135.818791,5033.400406,4737.318029,-68642.156621
5135.821299,7550.100608,6809.894666,-68488.937521
5135.823807,5033.400406,32569.061448,-71400.100414
5135.826315,3997.112087,17172.777854,-81972.218286
5135.828823,2516.700203,8734.430116,-83351.190182
5135.831332,-7402.059420,-35085.761651,-88254.201370
5135.833840,-1480.411884,-26943.496289,-72472.634111
5135.836348,-3552.988522,-12583.501014,-71859.757712
5135.838856,-5329.482782,-27979.784608,-85343.038477
5135.841364,1628.453072,6365.771101,-83657.628382
5135.843872,4589.276840,20429.683999,-86262.353075
5135.846380,4441.235652,29312.155303,-77375.645298
5135.848889,2072.576638,6217.729913,-70327.566716
5135.851397,1184.329507,-17616.901420,-70021.128517
5135.853905,-3849.070898,-20577.725188,-75537.016103
5135.856413,-4293.194464,-14656.077652,-82125.437386
5135.858921,2072.576638,592.164754,-86568.791274
5135.861429,740.205942,10955.047942,-85649.476676
5135.863937,5773.606348,4589.276840,-80593.246390
5135.866446,4293.194464,5625.565159,-68182.499322
5135.868954,7994.224174,-740.205942,-68488.937521
5135.871462,3552.988522,14359.995275,-68182.499322
5135.873970,-444.123565,-5033.400406,-86262.353075
5135.876478,-3849.070898,-8882.471304,-87028.448573
5135.878986,-5477.523971,-15692.365970,-87947.763170
5135.881494,-2960.823768,-20133.601622,-79520.712692
5135.884002,4441.235652,-4737.318029,-68948.594820
5135.886511,8290.306550,31088.649564,-65730.993728
5135.889019,3256.906145,39675.038491,-75690.235202
5135.891527,2072.576638,6957.935855,-85649.476676
5135.894035,-7550.100608,-12583.501014,-85802.695776
5135.896543,-7254.018232,-21910.095883,-87181.667672
5135.899051,-6661.853478,-29756.278868,-77375.645298
5135.901559,-740.205942,-8882.471304,-72932.291410
5135.904068,-4145.153275,2516.700203,-85189.819378
5135.906576,8290.306550,30052.361245,-82431.875585
5135.909096,5625.565159,30052.361245,-82125.437386
5135.911616,444.123565,15396.283594,-72625.853210
5135.914136,-2812.782580,2516.700203,-70327.566716
5135.916656,-2368.659014,-26499.372724,-76456.330700
5135.919177,-2516.700203,-11399.171507,-78754.617194
5135.921697,-740.205942,7550.100608,-85189.819378
5135.924217,2812.782580,15840.407159,-84270.504780
5135.926737,5773.606348,22946.384202,-79520.712692
5135.929257,888.247130,8290.306550,-72319.415011
5135.931777,4885.359217,9770.718434,-68948.594820
5135.934298,2220.617826,21169.889941,-69561.471218
5135.936818,444.123565,10955.047942,-81818.999186
5135.939338,-7254.018232,2960.823768,-84423.723880
5135.941858,-8438.347739,-13915.871710,-89633.173266
5135.944378,-2516.700203,-7550.100608,-80899.684589
5135.946899,5329.482782,5921.647536,-68642.156621
5135.949419,6217.729913,29460.196492,-66956.746525
5135.951939,8882.471304,26499.372724,-78448.178995
5135.954459,2812.782580,17320.819043,-80133.589091
5135.956979,-6513.812290,-21465.972318,-85189.819378
5135.959499,-5181.441594,-26055.249158,-71553.319513
5135.962020,-5921.647536,-38342.667796,-81818.999186
5135.964540,-7846.182985,-29460.196492,-75690.235202
5135.967060,-3997.112087,2220.617826,-81206.122788
5135.969580,6365.771101,19541.436869,-86568.791274
5135.972100,6069.688724,26647.413912,-76915.987999
5135.974621,6513.812290,10807.006753,-71246.881314
5135.977141,-2368.659014,-10214.842000,-69714.690318
5135.979661,-4885.359217,-34049.473332,-76762.768900
5135.982181,-4737.318029,-27091.537477,-82125.437386
5135.984701,888.247130,-2960.823768,-86568.791274
5135.987221,592.164754,17024.736666,-85496.257577
5135.989742,-1332.370696,-1776.494261,-79827.150892
5135.992262,2960.823768,5773.606348,-65884.212828
5135.994782,2072.576638,0.000000,-64505.240932
5135.997302,-444.123565,3404.947333,-72932.291410
5135.999822,740.205942,-2812.782580,-84117.285680
5136.002343,-1628.453072,-11991.336260,-88100.982270
5136.004863,-4441.235652,-12731.542202,-86568.791274
5136.007383,-2220.617826,-20281.642811,-80746.465489
5136.009913,3552.988522,-1924.535449,-67876.061123
5136.012444,3404.947333,1480.411884,-70174.347617
5136.014974,7994.224174,25907.207970,-69408.252119
5136.017505,2368.659014,12435.459826,-82278.656485
5136.020035,-2072.576638,-10214.842000,-87947.763170
5136.022566,0.000000,-8438.347739,-76609.549800
5136.025096,-2516.700203,-29312.155303,-77988.521696
5136.027626,-10955.047942,-17912.983796,-75383.797003
5136.030157,-1332.370696,5181.441594,-81972.218286
5136.032687,1184.329507,16580.613101,-84117.285680
5136.035218,10362.883188,35677.926404,-76303.111601
5136.037748,4589.276840,26499.372724,-71859.757712
5136.040279,740.205942,5477.523971,-70787.224015
5136.042809,-1480.411884,-26351.331535,-76149.892501
5136.045340,-4885.359217,-20725.766376,-85496.257577
5136.047870,-5329.482782,-3404.947333,-87334.886772
5136.050401,5033.400406,-2664.741391,-85496.257577
5136.052931,0.000000,6661.853478,-78754.617194
5136.055461,3701.029710,26499.372724,-66956.746525
5136.057992,3256.906145,9326.594869,-68029.280222
5136.060522,7994.224174,11547.212695,-72625.853210
5136.063053,-4885.359217,4293.194464,-85036.600278
5136.065583,444.123565,0.000000,-88407.420469
5136.068114,-2664.741391,-1628.453072,-85802.695776
5136.070644,-2072.576638,-7550.100608,-76149.892501
5136.073175,-148.041188,13027.624579,-68948.594820
5136.075705,6069.688724,20133.601622,-73391.948708
5136.078236,3997.112087,26943.496289,-69867.909418
5136.080766,3108.864956,19689.478057,-80133.589091
5136.083296,5921.647536,24870.919651,-79673.931792
5136.085827,6069.688724,4737.318029,-76762.768900
5136.088357,-1184.329507,-16284.530724,-75077.358804
5136.090888,-3701.029710,-17172.777854,-81206.122788
5136.093418,-5921.647536,-8882.471304,-82278.656485
5136.095949,1776.494261,5033.400406,-77835.302597
5136.098479,4885.359217,24574.837274,-75996.673402
5136.101010,7105.977043,13471.748144,-72472.634111
5136.103540,5033.400406,2960.823768,-69714.690318
5136.106071,-4145.153275,-17468.860231,-81818.999186
5136.108601,-8586.388927,-27683.702231,-84730.162079
5136.111139,-2072.576638,-16728.654289,-86109.133975
5136.113677,-5773.606348,-22650.301825,-84730.162079
5136.116214,-4737.318029,-6661.853478,-76149.892501
5136.118752,2960.823768,8586.388927,-70327.566716
5136.121290,5921.647536,13323.706956,-71706.538613
5136.123828,3552.988522,17912.983796,-75383.797003
5136.126366,740.205942,13619.789333,-84117.285680
5136.128904,1332.370696,-7846.182985,-86262.353075
5136.131441,-888.247130,-12731.542202,-78754.617194
5136.133979,-3997.112087,-22946.384202,-77069.207099
5136.136517,3108.864956,-8290.306550,-71400.100414
5136.139055,-1480.411884,9474.636058,-75843.454302
5136.141593,6217.729913,7254.018232,-82431.875585
5136.144131,5477.523971,10510.924376,-79061.055394
5136.146669,4737.318029,16580.613101,-74158.044206
5136.149206,0.000000,-8734.430116,-74311.263306
5136.151744,740.205942,-12139.377449,-73085.510509
5136.154282,-7846.182985,-32421.020260,-82891.532884
5136.156820,-2072.576638,-13175.665768,-81052.903688
5136.159358,-1480.411884,-2812.782580,-85649.476676
5136.161896,2368.659014,12583.501014,-76609.549800
5136.164433,9474.636058,39082.873738,-66956.746525
5136.166971,2516.700203,24722.878463,-72166.195912
5136.169509,-1332.370696,-6365.771101,-79367.493593
5136.172047,-5773.606348,-27091.537477,-86568.791274
5136.174585,-2072.576638,-15988.448347,-84423.723880
5136.177123,-7254.018232,-14063.912898,-80286.808190
5136.179660,-3849.070898,3701.029710,-76915.987999
5136.182198,148.041188,6365.771101,-78294.959896
5136.184736,6069.688724,25907.207970,-72932.291410
5136.187274,4145.153275,18061.024985,-80440.027290
5136.189812,5181.441594,15544.324782,-76762.768900
5136.192350,444.123565,-2220.617826,-77375.645298
5136.194887,-3552.988522,-16432.571912,-80593.246390
5136.197425,-2812.782580,-14804.118840,-79980.369991
5136.199963,0.000000,-2072.576638,-78601.398095
5136.202501,3849.070898,16136.489536,-77682.083497
5136.205039,2368.659014,16580.613101,-77988.521696
5136.207577,2516.700203,16284.530724,-79520.712692
5136.210114,4441.235652,24278.754898,-72472.634111
5136.212660,4885.359217,20577.725188,-71553.319513
5136.215204,-3997.112087,444.123565,-75230.577904
5136.217749,-2368.659014,-9918.759623,-79673.931792
5136.220293,-6661.853478,-13767.830521,-87181.667672
5136.222837,740.205942,-296.082377,-82585.094684
5136.225382,6069.688724,23686.590144,-74464.482406
5136.227926,6069.688724,29312.155303,-73238.729609
5136.230470,4885.359217,21465.972318,-71246.881314
5136.233014,8882.471304,14656.077652,-70174.347617
5136.235559,1184.329507,7402.059420,-74158.044206
5136.238103,-3997.112087,-21021.848753,-80746.465489
5136.240647,1924.535449,2516.700203,-75383.797003
5136.243192,-1480.411884,-18653.189738,-85496.257577
5136.245736,-6217.729913,-24130.713709,-84117.285680
5136.248280,-5625.565159,-15840.407159,-83351.190182
5136.250824,2812.782580,-1036.288319,-74004.825107
5136.253369,5181.441594,27387.619854,-66956.746525
5136.255913,4441.235652,15840.407159,-75230.577904
5136.258457,3849.070898,2664.741391,-76915.987999
5136.261002,-2072.576638,-15988.448347,-85189.819378
5136.263546,-3256.906145,-18505.148550,-85955.914876
5136.266090,-2664.741391,-12139.377449,-81512.560987
5136.268634,888.247130,-4293.194464,-75537.016103
5136.271179,-1628.453072,-17468.860231,-75996.673402
5136.273723,1184.329507,2220.617826,-74617.701505
5136.276267,4737.318029,10658.965565,-79520.712692
5136.278812,5033.400406,12287.418637,-78294.959896
5136.281356,3256.906145,296.082377,-77835.302597
5136.283900,-2664.741391,-18653.189738,-76609.549800
5136.286444,-2220.617826,-25611.125593,-79214.274493
5136.288989,-4885.359217,-15248.242405,-80899.684589
5136.291533,-296.082377,296.082377,-77835.302597
5136.294077,6513.812290,16432.571912,-78141.740796
5136.296622,5773.606348,10510.924376,-75843.454302
5136.299166,5921.647536,17468.860231,-72166.195912
5136.301710,5033.400406,31236.690752,-73085.510509
5136.304255,6809.894666,15988.448347,-72779.072310
5136.306799,-6217.729913,-12435.459826,-83657.628382
5136.309343,-4293.194464,-24426.796086,-87488.105872
5136.311887,-4441.235652,-6809.894666,-77222.426198
5136.314437,-3256.906145,15100.201217,-76149.892501
5136.316987,4293.194464,17616.901420,-75230.577904
5136.319537,5181.441594,24722.878463,-74924.139704
5136.322086,888.247130,10955.047942,-81052.903688
5136.324636,2812.782580,2516.700203,-77222.426198
5136.327186,-2664.741391,-8438.347739,-80899.684589
5136.329735,-5033.400406,-13767.830521,-81052.903688
5136.332285,740.205942,-23834.631332,-81512.560987
5136.334835,296.082377,-11399.171507,-81972.218286
5136.337385,-1924.535449,5625.565159,-80899.684589
5136.339934,4293.194464,23390.507767,-75230.577904
5136.342484,2812.782580,24722.878463,-77528.864398
5136.345034,4737.318029,15988.448347,-74004.825107
5136.347584,296.082377,8438.347739,-71553.319513
5136.350133,-5181.441594,-7402.059420,-81818.999186
5136.352683,-4885.359217,-14952.160028,-81972.218286
5136.355233,-1480.411884,5921.647536,-80593.246390
5136.357782,592.164754,7402.059420,-80133.589091
5136.360332,7105.977043,33753.390955,-69714.690318
5136.362882,5625.565159,21614.013506,-75996.673402
5136.365432,2072.576638,26203.290347,-72166.195912
5136.367981,8882.471304,10362.883188,-70634.004916
5136.370531,-1776.494261,-13619.789333,-78141.740796
5136.373081,-3997.112087,-22798.343014,-82125.437386
5136.375630,-4293.194464,-23094.425390,-83044.751983
5136.378180,-4145.153275,-4737.318029,-81359.341888
5136.380730,1332.370696,11251.130318,-77988.521696
5136.383280,7105.977043,18061.024985,-77528.864398
5136.385829,6957.935855,11103.089130,-70327.566716
5136.388379,2368.659014,3701.029710,-71553.319513
5136.390929,-1628.453072,-22058.137072,-81512.560987
5136.393479,-3552.988522,-21465.972318,-81512.560987
5136.396028,-5773.606348,-19689.478057,-87334.886772
5136.398578,-4885.359217,-14656.077652,-87641.324971
5136.401128,444.123565,-1480.411884,-77222.426198
5136.403677,1924.535449,3997.112087,-72932.291410
5136.406227,1628.453072,4589.276840,-73851.606007
5136.408777,2516.700203,3108.864956,-73851.606007
5136.411327,3256.906145,5773.606348,-78907.836294
5136.413876,148.041188,-15544.324782,-83810.847481
5136.416386,-148.041188,-19541.436869,-78294.959896
5136.418895,-7105.977043,-22502.260637,-86875.229473
5136.421404,2368.659014,-8438.347739,-76456.330700
5136.423913,-740.205942,-9178.553681,-75077.358804
5136.426422,1332.370696,8142.265362,-77375.645298
5136.428932,3997.112087,9326.594869,-75843.454302
5136.431441,7402.059420,18505.148550,-70787.224015
5136.433950,2220.617826,17764.942608,-76762.768900
5136.436459,-3256.906145,2516.700203,-79520.712692
5136.438968,-5329.482782,-20873.807564,-86109.133975
5136.441478,-3108.864956,-19097.313304,-85189.819378
5136.443987,1036.288319,3404.947333,-75230.577904
5136.446496,2664.741391,32272.979071,-70174.347617
5136.449005,7550.100608,34049.473332,-72012.976812
5136.451514,4737.318029,13175.665768,-74770.920605
5136.454024,-296.082377,-10510.924376,-84270.504780
5136.456533,444.123565,7254.018232,-79673.931792
5136.459042,-444.123565,-8290.306550,-82891.532884
5136.461551,-3701.029710,-14952.160028,-78754.617194
5136.464060,-740.205942,-11695.253884,-76915.987999
5136.466570,148.041188,-888.247130,-78141.740796
5136.469079,2072.576638,17024.736666,-76609.549800
5136.471588,5773.606348,24130.713709,-78141.740796
5136.474097,1776.494261,20429.683999,-77988.521696
5136.476606,2960.823768,2368.659014,-78601.398095
5136.479116,-1480.411884,-3997.112087,-78141.740796
5136.481625,-4441.235652,-13027.624579,-82585.094684
5136.484134,-148.041188,-12731.542202,-80899.684589
5136.486643,-1184.329507,-12287.418637,-81206.122788
5136.489152,-1628.453072,12139.377449,-79214.274493
5136.491661,2220.617826,19393.395680,-79061.055394
5136.494171,9622.677246,27535.661042,-71553.319513
5136.496680,3997.112087,19985.560434,-73545.167808
5136.499189,-740.205942,-19541.436869,-80593.246390
5136.501698,-2664.741391,-29016.072926,-77069.207099
5136.504207,-3997.112087,-24426.796086,-81972.218286
5136.506717,-7254.018232,-7846.182985,-79367.493593
5136.509226,5921.647536,25611.125593,-77375.645298
5136.511735,2812.782580,16136.489536,-81206.122788
5136.514244,7254.018232,13323.706956,-70634.004916
5136.516766,8438.347739,21317.931130,-65118.117330
5136.519289,1924.535449,1480.411884,-75230.577904
5136.521811,-592.164754,-12583.501014,-77528.864398
5136.524333,-1332.370696,-21021.848753,-83810.847481
5136.526855,-3552.988522,-20725.766376,-88407.420469
5136.529377,-148.041188,5329.482782,-80440.027290
5136.531900,3701.029710,9918.759623,-76149.892501
5136.534422,2812.782580,12287.418637,-70174.347617
5136.536944,2960.823768,2664.741391,-73085.510509
5136.539466,-888.247130,-6809.894666,-77528.864398
5136.541988,-2072.576638,-14952.160028,-80440.027290
5136.544510,-592.164754,-19837.519246,-85649.476676
5136.547033,-5625.565159,-25463.084405,-84117.285680
5136.549555,-5625.565159,-23242.466579,-81972.218286
5136.552077,148.041188,-5773.606348,-76303.111601
5136.554599,2516.700203,14508.036463,-74617.701505
5136.557121,6069.688724,21614.013506,-73698.386908
5136.559644,8734.430116,8882.471304,-74158.044206
5136.562166,1332.370696,5181.441594,-77835.302597
5136.564688,-4145.153275,-7254.018232,-80133.589091
5136.567210,-4737.318029,-10362.883188,-84423.723880
5136.569732,-9770.718434,-11399.171507,-85343.038477
5136.572254,4441.235652,5477.523971,-75537.016103
5136.574777,4589.276840,29756.278868,-68948.594820
5136.577299,888.247130,28571.949361,-74617.701505
5136.579821,7254.018232,29164.114115,-73238.729609
5136.582343,5921.647536,13027.624579,-77988.521696
5136.584865,-1776.494261,-444.123565,-81206.122788
5136.587388,-6069.688724,-11251.130318,-80133.589091
5136.589910,-3552.988522,-12583.501014,-83351.190182
5136.592432,-2812.782580,-2664.741391,-76303.111601
5136.594954,1776.494261,-296.082377,-75996.673402
5136.597476,4441.235652,19689.478057,-73698.386908
5136.599998,3997.112087,22058.137072,-76149.892501
5136.602521,3997.112087,16728.654289,-79673.931792
5136.605043,-444.123565,-296.082377,-80133.589091
5136.607565,-2220.617826,7402.059420,-74924.139704
5136.610087,-3256.906145,-6365.771101,-78294.959896
5136.612609,-1628.453072,-10955.047942,-80593.246390
5136.615132,-1332.370696,-2664.741391,-78601.398095
5136.617665,1628.453072,11103.089130,-79980.369991
5136.620198,5329.482782,27387.619854,-75230.577904
5136.622731,5329.482782,22354.219448,-75230.577904
5136.625265,3997.112087,16876.695478,-74311.263306
5136.627798,-2220.617826,-25463.084405,-79520.712692
5136.630331,-5477.523971,-22798.343014,-79367.493593
5136.632864,-2368.659014,-29460.196492,-85496.257577
5136.635398,-592.164754,3701.029710,-72779.072310
5136.637931,-1332.370696,-4441.235652,-81665.780087
5136.640464,-444.123565,4441.235652,-83044.751983
5136.642998,10214.842000,18209.066173,-73851.606007
5136.645531,3849.070898,9622.677246,-71093.662214
5136.648064,2812.782580,18505.148550,-68642.156621
5136.650597,3256.906145,12139.377449,-74158.044206
5136.653131,2368.659014,-4293.194464,-81972.218286
5136.655664,-3552.988522,-7402.059420,-86109.133975
5136.658197,-3108.864956,-21910.095883,-84270.504780
5136.660730,2368.659014,-7550.100608,-74924.139704
5136.663264,-3997.112087,-5033.400406,-78294.959896
5136.665797,7846.182985,1480.411884,-71706.538613
5136.668330,6809.894666,17172.777854,-69714.690318
5136.670864,2368.659014,17764.942608,-78754.617194
5136.673397,2812.782580,6069.688724,-82738.313784
5136.675930,5625.565159,2812.782580,-68488.937521
5136.678463,-4885.359217,-23538.548956,-81665.780087
5136.680997,-2516.700203,-26055.249158,-80440.027290
5136.683530,-2368.659014,-17172.777854,-81359.341888
5136.686063,-740.205942,-2960.823768,-81359.341888
5136.688596,8142.265362,21169.889941,-72319.415011
5136.691130,6661.853478,40859.367998,-72319.415011
5136.693663,1480.411884,19541.436869,-76609.549800
5136.696196,444.123565,-10214.842000,-79367.493593
5136.698730,-10362.883188,-33161.226202,-87641.324971
5136.701263,-5773.606348,-22946.384202,-82738.313784
5136.703796,-2960.823768,-5477.523971,-81206.122788
5136.706329,-2220.617826,444.123565,-79214.274493
5136.708863,4885.359217,18209.066173,-75383.797003
5136.711396,5625.565159,20281.642811,-77528.864398
5136.713929,4885.359217,24722.878463,-74158.044206
5136.716462,2960.823768,7994.224174,-75996.673402
5136.719005,-3552.988522,-13915.871710,-77375.645298
5136.721547,-5033.400406,-18653.189738,-83351.190182
5136.724090,-3552.988522,-18653.189738,-85802.695776
5136.726632,1924.535449,9918.759623,-74158.044206
5136.729175,2960.823768,23834.631332,-76609.549800
5136.731717,1480.411884,17616.901420,-78907.836294
5136.734260,3552.988522,23538.548956,-73545.167808
5136.736802,2960.823768,27683.702231,-74924.139704
5136.739345,1924.535449,2220.617826,-78448.178995
5136.741887,-1628.453072,4293.194464,-73545.167808
5136.744430,-7105.977043,-17616.901420,-88867.077768
5136.746972,-888.247130,-6513.812290,-81052.903688
5136.749514,296.082377,8586.388927,-78141.740796
5136.752057,3997.112087,19097.313304,-77222.426198
5136.754599,7254.018232,15396.283594,-71093.662214
5136.757142,1480.411884,8142.265362,-74004.825107
5136.759684,-2516.700203,-17468.860231,-79827.150892
5136.762227,3701.029710,7994.224174,-70021.128517
5136.764769,-444.123565,-12583.501014,-83657.628382
5136.767312,-9622.677246,-27535.661042,-88254.201370
5136.769854,-2812.782580,-18061.024985,-81359.341888
5136.772397,-444.123565,-3997.112087,-74770.920605
5136.774939,1480.411884,18357.107362,-70634.004916
5136.777482,7846.182985,17024.736666,-74311.263306
5136.780024,5033.400406,8438.347739,-75383.797003
5136.782566,888.247130,-6809.894666,-81972.218286
5136.785109,-2368.659014,-11251.130318,-86109.133975
5136.787651,-3404.947333,-13027.624579,-81818.999186
5136.790194,4589.276840,-6365.771101,-73851.606007
5136.792736,-296.082377,-11251.130318,-75996.673402
5136.795279,-444.123565,0.000000,-79367.493593
5136.797821,3997.112087,1184.329507,-79367.493593
5136.800329,7698.141797,11843.295072,-77528.864398
5136.802837,3108.864956,-2516.700203,-77528.864398
5136.805345,3256.906145,-888.247130,-72932.291410
5136.807853,-3997.112087,-21169.889941,-81665.780087
5136.810360,-6513.812290,-18801.230927,-81206.122788
5136.812868,-2812.782580,-17172.777854,-83504.409282
5136.815376,1776.494261,4293.194464,-78294.959896
5136.817884,9030.512492,40711.326810,-71706.538613
5136.820392,8142.265362,32865.143825,-74158.044206
5136.822900,6957.935855,26203.290347,-74004.825107
5136.825407,6217.729913,10510.924376,-73238.729609
5136.827915,-444.123565,-6069.688724,-77375.645298
5136.830423,-3701.029710,-9326.594869,-82738.313784
5136.832931,-4145.153275,-9178.553681,-82278.656485
5136.835439,-592.164754,-1924.535449,-80899.684589
5136.837947,3552.988522,19689.478057,-75843.454302
5136.840455,4589.276840,25759.166782,-72779.072310
5136.842962,7550.100608,22650.301825,-71093.662214
5136.845470,-2072.576638,4737.318029,-77835.302597
5136.847978,-4145.153275,-19097.313304,-84883.381178
5136.850486,740.205942,-14359.995275,-80286.808190
5136.852994,-3849.070898,2812.782580,-80899.684589
5136.855502,-5921.647536,0.000000,-79980.369991
5136.858009,-1776.494261,2516.700203,-78448.178995
5136.860517,2220.617826,20577.725188,-78294.959896
5136.863025,3997.112087,14211.954086,-79061.055394
5136.865533,8734.430116,41599.573940,-67109.965625
5136.868041,-2516.700203,-2960.823768,-82278.656485
5136.870549,296.082377,-2220.617826,-74311.263306
5136.873057,-5773.606348,-23390.507767,-89326.735067
5136.875564,-2368.659014,-14952.160028,-81052.903688
5136.878072,3256.906145,22206.178260,-75077.358804
5136.880580,6957.935855,1628.453072,-79520.712692
5136.883088,5329.482782,6365.771101,-70480.785816
5136.885596,6365.771101,28571.949361,-70634.004916
5136.888104,4737.318029,11103.089130,-78754.617194
5136.890611,4293.194464,0.000000,-74464.482406
5136.893119,-7105.977043,-27091.537477,-86415.572174
5136.895627,-4589.276840,-26351.331535,-85343.038477
5136.898135,-1184.329507,-10066.800811,-75537.016103
5136.900657,3108.864956,4737.318029,-74924.139704
5136.903180,4885.359217,21169.889941,-72319.415011
5136.905702,4441.235652,9622.677246,-79367.493593
5136.908224,3849.070898,6365.771101,-78448.178995
5136.910747,-2368.659014,-2812.782580,-79367.493593
5136.913269,-3108.864956,-20725.766376,-81972.218286
5136.915792,-888.247130,-17468.860231,-77528.864398
5136.918314,-1480.411884,-18061.024985,-80440.027290
5136.920836,-1776.494261,-13027.624579,-81972.218286
5136.923359,3701.029710,-2960.823768,-81206.122788
5136.925881,3108.864956,4885.359217,-78448.178995
5136.928404,6809.894666,16580.613101,-70634.004916
5136.930926,6217.729913,9474.636058,-72166.195912
5136.933448,-2220.617826,-11103.089130,-78754.617194
5136.935971,-6661.853478,-29904.320057,-86415.572174
5136.938493,444.123565,-28719.990550,-85649.476676
5136.941015,0.000000,15544.324782,-75077.358804
5136.943538,3256.906145,33013.185013,-81512.560987
5136.946060,740.205942,11103.089130,-78907.836294
5136.948583,7846.182985,19689.478057,-73085.510509
5136.951105,2368.659014,23686.590144,-69255.033019
5136.953627,2812.782580,17024.736666,-74770.920605
5136.956150,-2812.782580,-2516.700203,-80133.589091
5136.958672,-5181.441594,-18801.230927,-86262.353075
5136.961195,-3256.906145,-11695.253884,-85496.257577
5136.963717,888.247130,6513.812290,-77222.426198
5136.966239,4293.194464,29608.237680,-70634.004916
5136.968762,4441.235652,26499.372724,-69714.690318
5136.971284,1776.494261,8290.306550,-74617.701505
5136.973806,-3108.864956,-3997.112087,-83504.409282
5136.976329,740.205942,10807.006753,-81818.999186
5136.978851,1184.329507,5033.400406,-77528.864398
5136.981374,-3997.112087,-8142.265362,-78754.617194
5136.983896,-2516.700203,-4145.153275,-80746.465489
5136.986418,-740.205942,1776.494261,-77988.521696
5136.988941,3108.864956,24574.837274,-75690.235202
5136.991463,8438.347739,26055.249158,-76149.892501
5136.993985,2516.700203,22058.137072,-72012.976812
5136.996508,3849.070898,1036.288319,-80133.589091
5136.999030,-5033.400406,-15544.324782,-81359.341888
5137.001565,-2812.782580,-26351.331535,-83351.190182
5137.004100,-2072.576638,-13619.789333,-82431.875585
5137.006634,-2072.576638,-26795.455100,-86262.353075
5137.009169,888.247130,8586.388927,-71400.100414
5137.011703,2960.823768,20873.807564,-77835.302597
5137.014238,6069.688724,16580.613101,-77682.083497
5137.016773,4589.276840,1036.288319,-73698.386908
5137.019307,-148.041188,-13175.665768,-78448.178995
5137.021842,-3108.864956,-23686.590144,-79520.712692
5137.024377,-1184.329507,-19393.395680,-79061.055394
5137.026911,-888.247130,-2812.782580,-80440.027290
5137.029446,2368.659014,5773.606348,-81512.560987
5137.031981,7254.018232,22650.301825,-74924.139704
5137.034515,5181.441594,12583.501014,-75383.797003
5137.037050,2960.823768,8734.430116,-70174.347617
5137.039584,1924.535449,3404.947333,-72779.072310
5137.042119,1036.288319,-14211.954086,-80746.465489
5137.044654,-1036.288319,-18209.066173,-81972.218286
5137.047188,-4145.153275,-23686.590144,-85955.914876
5137.049723,740.205942,-12731.542202,-82125.437386
5137.052258,2220.617826,9770.718434,-72319.415011
5137.054792,4589.276840,17468.860231,-72472.634111
5137.057327,5033.400406,14508.036463,-72779.072310
5137.059862,8290.306550,11399.171507,-77222.426198
5137.062396,5625.565159,31976.896694,-72012.976812
5137.064931,-592.164754,7846.182985,-82125.437386
5137.067466,-1184.329507,-15988.448347,-83964.066581
5137.070000,-1924.535449,-15840.407159,-80899.684589
5137.072535,-6217.729913,-26499.372724,-81512.560987
5137.075069,-4589.276840,1480.411884,-78601.398095
5137.077604,1776.494261,11843.295072,-77528.864398
5137.080139,4441.235652,30052.361245,-75996.673402
5137.082673,4441.235652,19541.436869,-80440.027290
5137.085208,4145.153275,11399.171507,-72319.415011
5137.087743,-592.164754,-2220.617826,-75843.454302
5137.090277,-4293.194464,-14804.118840,-79827.150892
5137.092812,-3701.029710,-16728.654289,-80593.246390
5137.095347,2664.741391,-2368.659014,-79980.369991
5137.097881,2368.659014,19837.519246,-74924.139704
5137.100416,3552.988522,19689.478057,-74924.139704
5137.102921,3701.029710,15248.242405,-79520.712692
5137.105426,5181.441594,25315.043216,-70787.224015
5137.107931,1480.411884,11547.212695,-73391.948708
5137.110435,-1924.535449,11103.089130,-77069.207099
5137.112940,-2812.782580,-14508.036463,-85189.819378
5137.115445,-2220.617826,-8586.388927,-80133.589091
5137.117950,-1776.494261,-2960.823768,-83657.628382
5137.120455,1628.453072,11843.295072,-76609.549800
5137.122960,7846.182985,12435.459826,-72166.195912
5137.125465,3256.906145,14804.118840,-72625.853210
5137.127969,4293.194464,-2368.659014,-76762.768900
5137.130474,2368.659014,12435.459826,-72319.415011
5137.132979,4145.153275,1184.329507,-79980.369991
5137.135484,-5477.523971,-31976.896694,-87488.105872
5137.137989,-5921.647536,-26943.496289,-80899.684589
5137.140494,-1776.494261,-10658.965565,-79980.369991
5137.142999,-740.205942,11843.295072,-71706.538613
5137.145504,8142.265362,24278.754898,-71706.538613
5137.148008,4293.194464,16432.571912,-77069.207099
5137.150513,1184.329507,-2812.782580,-79367.493593
5137.153018,-1480.411884,-10955.047942,-83964.066581
5137.155523,-5329.482782,-22058.137072,-82585.094684
5137.158028,888.247130,-11251.130318,-72012.976812
5137.160533,-2368.659014,-592.164754,-75077.358804
5137.163038,-1776.494261,-11399.171507,-81665.780087
5137.165543,740.205942,1332.370696,-79214.274493
5137.168047,6217.729913,8290.306550,-78141.740796
5137.170552,4441.235652,18949.272115,-70480.785816
5137.173057,1480.411884,4589.276840,-76915.987999
5137.175562,-1184.329507,-15396.283594,-78448.178995
5137.178067,-4885.359217,-29756.278868,-80593.246390
5137.180572,-2368.659014,-15248.242405,-81512.560987
5137.183077,-296.082377,21465.972318,-77988.521696
5137.185582,2812.782580,24870.919651,-78907.836294
5137.188086,5773.606348,30792.567187,-73698.386908
5137.190591,10066.800811,13767.830521,-77222.426198
5137.193096,5033.400406,29016.072926,-64811.679131
5137.195601,0.000000,17024.736666,-75996.673402
5137.198106,-2664.741391,-6957.935855,-81818.999186
5137.200611,-2516.700203,-20429.683999,-87028.448573
5137.203130,-5033.400406,-13767.830521,-87334.886772
5137.205651,592.164754,9622.677246,-75690.235202
5137.208172,3108.864956,29608.237680,-69714.690318
5137.210694,3997.112087,17468.860231,-73851.606007
5137.213215,2664.741391,7698.141797,-74311.263306
5137.215736,-1924.535449,-2368.659014,-83197.971083
5137.218257,-592.164754,-1776.494261,-83044.751983
5137.220778,-2368.659014,-4441.235652,-79061.055394
5137.223300,-1924.535449,-5477.523971,-78601.398095
5137.225821,-6069.688724,-5773.606348,-81972.218286
5137.228342,592.164754,7550.100608,-78601.398095
5137.230863,5033.400406,17764.942608,-77222.426198
5137.233384,5329.482782,30644.525999,-70480.785816
5137.235905,6365.771101,17320.819043,-74770.920605
5137.238427,2220.617826,2812.782580,-78754.617194
5137.240948,-6217.729913,-28127.825796,-82278.656485
5137.243469,-7402.059420,-24722.878463,-83504.409282
5137.245990,888.247130,-22058.137072,-82278.656485
5137.248511,5625.565159,18505.148550,-68948.594820
5137.251033,5181.441594,24574.837274,-80593.246390
5137.253554,4293.194464,4441.235652,-79520.712692
5137.256075,9326.594869,21614.013506,-70634.004916
5137.258596,2960.823768,2812.782580,-77375.645298
5137.261117,2516.700203,-3108.864956,-71706.538613
5137.263638,-5625.565159,-20281.642811,-83044.751983
5137.266160,-5477.523971,-28571.949361,-88560.639569
5137.268681,-592.164754,-888.247130,-79827.150892
5137.271202,5033.400406,7846.182985,-77835.302597
5137.273723,5921.647536,19541.436869,-72472.634111
5137.276244,0.000000,7698.141797,-71859.757712
5137.278766,5033.400406,-8882.471304,-76456.330700
5137.281287,-2812.782580,-11399.171507,-78907.836294
5137.283808,1184.329507,-13619.789333,-83197.971083
5137.286329,-6365.771101,-21317.931130,-80899.684589
5137.288850,-5625.565159,-18209.066173,-84730.162079
5137.291372,-2664.741391,-9474.636058,-79214.274493
5137.293893,4293.194464,7254.018232,-72012.976812
5137.296414,4589.276840,10807.006753,-75537.016103
5137.298935,5773.606348,23686.590144,-71400.100414
5137.301456,1924.535449,22798.343014,-75383.797003
5137.303991,-3108.864956,-4885.359217,-85189.819378
5137.306526,-7254.018232,-20133.601622,-83810.847481
5137.309061,-1332.370696,-20133.601622,-82891.532884
5137.311595,-3997.112087,8734.430116,-72472.634111
5137.314130,-2516.700203,4145.153275,-76609.549800
5137.316665,3108.864956,21614.013506,-77069.207099
5137.319200,5181.441594,19097.313304,-81206.122788
5137.321735,6069.688724,19985.560434,-73851.606007
5137.324269,888.247130,10807.006753,-76762.768900
5137.326804,-1628.453072,-2812.782580,-77222.426198
5137.329339,-740.205942,-10214.842000,-78601.398095
5137.331874,-2664.741391,-11103.089130,-84270.504780
5137.334409,3404.947333,592.164754,-79214.274493
5137.336943,2072.576638,17172.777854,-76609.549800
5137.339478,3256.906145,31680.814318,-76609.549800
5137.342013,3256.906145,18209.066173,-72932.291410
5137.344548,5033.400406,26351.331535,-66803.527426
5137.347083,2664.741391,15840.407159,-77682.083497
5137.349617,-3404.947333,-9474.636058,-81206.122788
5137.352152,-2960.823768,-11991.336260,-82738.313784
5137.354687,-4293.194464,-17024.736666,-85802.695776
5137.357222,-2664.741391,12139.377449,-73851.606007
5137.359757,4293.194464,-1924.535449,-79061.055394
5137.362291,6217.729913,18801.230927,-68182.499322
5137.364826,3256.906145,13323.706956,-74617.701505
5137.367361,888.247130,-6957.935855,-76456.330700
5137.369896,-2368.659014,-12287.418637,-81359.341888
5137.372431,-6957.935855,-32272.979071,-89020.296868
5137.374965,-5477.523971,-39230.914926,-84576.942979
5137.377500,-2664.741391,-10214.842000,-75690.235202
5137.380035,-740.205942,-1924.535449,-80133.589091
5137.382570,5921.647536,21762.054695,-69867.909418
5137.385105,6809.894666,14063.912898,-76762.768900
5137.387639,1184.329507,7105.977043,-80593.246390
5137.390174,592.164754,-3701.029710,-79980.369991
5137.392709,-1332.370696,-19245.354492,-79980.369991
5137.395244,-444.123565,-17764.942608,-74311.263306
5137.397779,-1036.288319,-9918.759623,-78448.178995
5137.400313,3404.947333,-5329.482782,-81665.780087
5137.402848,5033.400406,15692.365970,-75383.797003
5137.405394,5477.523971,13767.830521,-80133.589091
5137.407940,6957.935855,17172.777854,-73545.167808
5137.410487,5773.606348,17616.901420,-66803.527426
5137.413033,-1036.288319,-15840.407159,-81052.903688
5137.415579,-296.082377,-23686.590144,-79827.150892
5137.418125,-8734.430116,-4293.194464,-79980.369991
5137.420671,-2516.700203,5033.400406,-86722.010374
5137.423217,3108.864956,16728.654289,-78754.617194
5137.425763,6365.771101,23094.425390,-73238.729609
5137.428309,3256.906145,17320.819043,-71706.538613
5137.430855,888.247130,9770.718434,-72166.195912
5137.433401,-5625.565159,-7994.224174,-81512.560987
5137.435948,148.041188,-14508.036463,-86875.229473
5137.438494,-1332.370696,-10658.965565,-81206.122788
5137.441040,-5181.441594,-18505.148550,-84883.381178
5137.443586,1628.453072,1628.453072,-75230.577904
5137.446132,2960.823768,10510.924376,-72625.853210
5137.448678,888.247130,12879.583391,-76456.330700
5137.451224,3108.864956,19837.519246,-76609.549800
5137.453770,2072.576638,10362.883188,-78448.178995
5137.456316,-4293.194464,2960.823768,-78448.178995
5137.458862,-3108.864956,-9770.718434,-82278.656485
5137.461409,-3849.070898,-2516.700203,-78601.398095
5137.463955,-296.082377,9178.553681,-78907.836294
5137.466501,-2812.782580,-7105.977043,-82585.094684
5137.469047,4737.318029,23390.507767,-74924.139704
5137.471593,-2812.782580,7402.059420,-77682.083497
5137.474139,1480.411884,19985.560434,-74004.825107
5137.476685,9030.512492,14656.077652,-74617.701505
5137.479231,7105.977043,-2072.576638,-72012.976812
5137.481777,-1184.329507,-1036.288319,-77835.302597
5137.484324,-6661.853478,-24574.837274,-88713.858668
5137.486870,-888.247130,-16136.489536,-79520.712692
5137.489416,-3404.947333,-7254.018232,-81512.560987
5137.491962,3256.906145,2368.659014,-75077.358804
5137.494508,5477.523971,24870.919651,-69408.252119
5137.497054,3552.988522,7402.059420,-76915.987999
5137.499600,1332.370696,3997.112087,-71859.757712
5137.502146,4441.235652,9474.636058,-76609.549800
5137.504692,-2368.659014,-13175.665768,-84576.942979
5137.507247,-148.041188,-12879.583391,-80133.589091
5137.509802,-2516.700203,-18209.066173,-76915.987999
5137.512356,-888.247130,-11843.295072,-75996.673402
5137.514911,8882.471304,3849.070898,-77528.864398
5137.517465,4885.359217,9622.677246,-79520.712692
5137.520020,9474.636058,6069.688724,-74770.920605
5137.522574,1332.370696,2220.617826,-74311.263306
5137.525129,-5033.400406,-17468.860231,-83810.847481
5137.527684,-1480.411884,-27535.661042,-79673.931792
5137.530238,-1628.453072,-16580.613101,-76149.892501
5137.532793,-4737.318029,-2368.659014,-81512.560987
5137.535347,-4293.194464,9030.512492,-83964.066581
5137.537902,7550.100608,24574.837274,-78294.959896
5137.540456,7402.059420,19541.436869,-74311.263306
5137.543011,1332.370696,17172.777854,-71246.881314
5137.545566,2072.576638,592.164754,-75996.673402
5137.548120,-3256.906145,-11251.130318,-79367.493593
5137.550675,-2516.700203,-12435.459826,-84270.504780
5137.553229,-1332.370696,-6365.771101,-84423.723880
5137.555784,3256.906145,14063.912898,-78601.398095
5137.558339,5773.606348,26351.331535,-71246.881314
5137.560893,3256.906145,18949.272115,-68642.156621
5137.563448,2960.823768,7994.224174,-71246.881314
5137.566002,1332.370696,14359.995275,-78601.398095
5137.568557,2960.823768,4589.276840,-83044.751983
5137.571111,-2664.741391,-8142.265362,-78601.398095
5137.573666,-3849.070898,1480.411884,-78448.178995
5137.576221,-2368.659014,0.000000,-78754.617194
5137.578775,2220.617826,18653.189738,-72472.634111
5137.581330,3108.864956,17616.901420,-79520.712692
5137.583884,3108.864956,23538.548956,-73851.606007
5137.586439,1628.453072,10955.047942,-76762.768900
5137.588994,-6809.894666,-888.247130,-80746.465489
5137.591548,-5033.400406,-37158.338288,-81206.122788
5137.594103,-2960.823768,-29016.072926,-75690.235202
5137.596657,-4293.194464,-26943.496289,-89479.954166
5137.599212,-5181.441594,-8734.430116,-82278.656485
5137.601766,3552.988522,16432.571912,-73545.167808
5137.604321,3108.864956,18209.066173,-78294.959896
5137.606876,6957.935855,8142.265362,-72932.291410
5137.609400,1776.494261,1480.411884,-72625.853210
5137.611923,-1924.535449,-19689.478057,-81818.999186
5137.614447,-4145.153275,-14804.118840,-80440.027290
5137.616971,-3849.070898,-16136.489536,-86568.791274
5137.619495,1332.370696,1628.453072,-80440.027290
5137.622019,6661.853478,12731.542202,-72625.853210
5137.624543,2220.617826,13323.706956,-74464.482406
5137.627067,2220.617826,10066.800811,-73391.948708
5137.629591,5329.482782,4589.276840,-73698.386908
5137.632115,3404.947333,-7402.059420,-79520.712692
5137.634639,0.000000,-19097.313304,-83044.751983
5137.637163,-3849.070898,-18061.024985,-83197.971083
5137.639687,-5033.400406,-16284.530724,-82278.656485
5137.642211,4145.153275,3256.906145,-75077.358804
5137.644735,2960.823768,2960.823768,-72932.291410
5137.647259,9918.759623,41007.409187,-68488.937521
5137.649783,3849.070898,20725.766376,-78754.617194
5137.652307,3256.906145,1480.411884,-79367.493593
5137.654831,-5773.606348,4145.153275,-78754.617194
5137.657354,-3256.906145,-20577.725188,-83657.628382
5137.659878,-4293.194464,-11103.089130,-76762.768900
5137.662402,-5477.523971,-5033.400406,-80746.465489
5137.664926,2220.617826,13323.706956,-76762.768900
5137.667450,3849.070898,22502.260637,-77528.864398
5137.669974,6365.771101,21169.889941,-77375.645298
5137.672498,5181.441594,16728.654289,-71553.319513
5137.675022,-2072.576638,-4589.276840,-77835.302597
5137.677546,0.000000,-11843.295072,-81052.903688
5137.680070,-2812.782580,-7846.182985,-81972.218286
5137.682594,444.123565,-444.123565,-82891.532884
5137.685118,4589.276840,20873.807564,-75843.454302
5137.687642,2368.659014,17616.901420,-74924.139704
5137.690166,1480.411884,22502.260637,-74158.044206
5137.692690,11103.089130,31532.773129,-71246.881314
5137.695214,2368.659014,11251.130318,-79673.931792
5137.697738,-3552.988522,-2960.823768,-78754.617194
5137.700261,-3404.947333,-18801.230927,-85649.476676
5137.702785,-6513.812290,-18357.107362,-82125.437386
5137.705309,1480.411884,-13175.665768,-78448.178995
5137.707833,5773.606348,3108.864956,-71246.881314
5137.710371,8438.347739,27091.537477,-73391.948708
5137.712908,5033.400406,12879.583391,-77835.302597
5137.715445,6217.729913,2072.576638,-75230.577904
5137.717982,1628.453072,13471.748144,-74158.044206
5137.720519,-2812.782580,-31680.814318,-82738.313784
5137.723056,-148.041188,-24130.713709,-74311.263306
5137.725594,-5181.441594,-19097.313304,-85649.476676
5137.728131,-4293.194464,6809.894666,-78754.617194
5137.730668,7550.100608,15692.365970,-75537.016103
5137.733205,4293.194464,17616.901420,-78294.959896
5137.735742,-2368.659014,5181.441594,-74617.701505
5137.738279,4441.235652,-14804.118840,-76303.111601
5137.740817,-6513.812290,-18949.272115,-76915.987999
5137.743354,-2664.741391,-23538.548956,-82125.437386
5137.745891,-296.082377,-16728.654289,-80899.684589
5137.748428,-3108.864956,-9030.512492,-82891.532884
5137.750965,-4441.235652,-4737.318029,-86109.133975
5137.753502,9770.718434,14656.077652,-70021.128517
5137.756040,3552.988522,13323.706956,-70327.566716
5137.758577,3997.112087,15840.407159,-70787.224015
5137.761114,1480.411884,13027.624579,-74770.920605
5137.763651,-7105.977043,-11991.336260,-88407.420469
5137.766188,-7402.059420,-16580.613101,-86415.572174
5137.768726,-1480.411884,-2812.782580,-80899.684589
5137.771263,0.000000,12435.459826,-71246.881314
5137.773800,6217.729913,38934.832549,-68335.718422
5137.776337,7105.977043,21317.931130,-75383.797003
5137.778874,5033.400406,24870.919651,-75843.454302
5137.781411,3108.864956,13767.830521,-74617.701505
5137.783949,-2812.782580,-3552.988522,-81359.341888
5137.786486,-2516.700203,-19097.313304,-81818.999186
5137.789023,-740.205942,-5921.647536,-76149.892501
5137.791560,888.247130,888.247130,-78294.959896
5137.794097,3997.112087,17468.860231,-76303.111601
5137.796634,3404.947333,19393.395680,-81359.341888
5137.799172,3256.906145,27091.537477,-74924.139704
5137.801709,-444.123565,7698.141797,-72319.415011
5137.804246,-7994.224174,1776.494261,-76609.549800
5137.806783,-6069.688724,-19985.560434,-85802.695776
5137.809320,-2664.741391,-16876.695478,-85343.038477
5137.811868,-3256.906145,-15100.201217,-83504.409282
5137.814417,-3108.864956,-888.247130,-81972.218286
5137.816965,4441.235652,1924.535449,-76149.892501
5137.819513,4737.318029,9918.759623,-69255.033019
5137.822061,6365.771101,15100.201217,-75383.797003
5137.824609,-2516.700203,-2664.741391,-78141.740796
5137.827157,-148.041188,-13471.748144,-81512.560987
5137.829705,-5773.606348,-23686.590144,-86875.229473
5137.832253,-4589.276840,-22058.137072,-80286.808190
5137.834802,4885.359217,4737.318029,-74158.044206
5137.837350,3552.988522,12139.377449,-73851.606007
5137.839898,3849.070898,20577.725188,-74464.482406
5137.842446,3404.947333,19541.436869,-75537.016103
5137.844994,3849.070898,8290.306550,-78294.959896
5137.847542,-4589.276840,-5921.647536,-78448.178995
5137.850090,-3997.112087,-24870.919651,-80440.027290
5137.852638,-3404.947333,-21614.013506,-76303.111601
5137.855187,-6217.729913,-12879.583391,-80593.246390
5137.857735,-296.082377,-4293.194464,-81206.122788
5137.860283,7550.100608,20133.601622,-73851.606007
5137.862831,296.082377,16284.530724,-79214.274493
5137.865379,4737.318029,7994.224174,-71553.319513
5137.867927,-2960.823768,-18505.148550,-77988.521696
5137.870475,-3701.029710,-15692.365970,-80133.589091
5137.873023,-4293.194464,0.000000,-79980.369991
5137.875571,-1776.494261,-13027.624579,-85343.038477
5137.878120,-5033.400406,-5329.482782,-83964.066581
5137.880668,4293.194464,7550.100608,-79367.493593
5137.883216,-444.123565,3849.070898,-75077.358804
5137.885764,6513.812290,23094.425390,-72012.976812
5137.888312,5921.647536,31384.731941,-72625.853210
5137.890860,1924.535449,15840.407159,-80440.027290
5137.893408,5181.441594,-2960.823768,-77988.521696
5137.895956,-4737.318029,-8290.306550,-79367.493593
5137.898505,-4737.318029,-13471.748144,-82891.532884
5137.901053,5477.523971,-1776.494261,-74464.482406
5137.903601,444.123565,-6069.688724,-81359.341888
5137.906149,-592.164754,8882.471304,-82431.875585
5137.908697,3108.864956,20281.642811,-78601.398095
5137.911245,3552.988522,34493.596897,-70634.004916
5137.913802,148.041188,18061.024985,-72779.072310
5137.916358,3701.029710,2368.659014,-72319.415011
5137.918914,-6661.853478,-13767.830521,-83351.190182
5137.921471,-5329.482782,-22058.137072,-87641.324971
5137.924027,-3404.947333,7402.059420,-79061.055394
5137.926584,148.041188,-3997.112087,-80899.684589
5137.929140,4589.276840,27387.619854,-68488.937521
5137.931697,4885.359217,2516.700203,-75996.673402
5137.934253,5921.647536,20725.766376,-68948.594820
5137.936809,4885.359217,20133.601622,-72166.195912
5137.939366,444.123565,-8882.471304,-87028.448573
5137.941922,-2960.823768,-26795.455100,-84576.942979
5137.944479,-6661.853478,-25315.043216,-77988.521696
5137.947035,-2368.659014,-7105.977043,-78907.836294
5137.949591,3108.864956,7994.224174,-73698.386908
5137.952148,7105.977043,20577.725188,-71706.538613
5137.954704,1776.494261,17764.942608,-78754.617194
5137.957261,-4145.153275,-6661.853478,-81512.560987
5137.959817,4293.194464,-15544.324782,-79827.150892
5137.962374,-2664.741391,-21762.054695,-80593.246390
5137.964930,-3256.906145,-35085.761651,-81512.560987
5137.967486,-3552.988522,-16432.571912,-77528.864398
5137.970043,-1924.535449,-17172.777854,-89786.392366
5137.972599,4293.194464,16136.489536,-74924.139704
5137.975156,6365.771101,25018.960840,-72932.291410
5137.977712,7254.018232,5329.482782,-74004.825107
5137.980268,1924.535449,12287.418637,-68948.594820
5137.982825,-4145.153275,-7698.141797,-83351.190182
5137.985381,-3701.029710,-17024.736666,-86415.572174
5137.987938,-5033.400406,-3701.029710,-82738.313784
5137.990494,888.247130,6365.771101,-79980.369991
5137.993051,4885.359217,32421.020260,-68029.280222
5137.995607,7105.977043,25611.125593,-73238.729609
5137.998163,4145.153275,27091.537477,-75996.673402
5138.000720,5921.647536,19245.354492,-76456.330700
5138.003276,2220.617826,-2072.576638,-79827.150892
5138.005833,-4737.318029,-10214.842000,-79827.150892
5138.008389,-3256.906145,-16136.489536,-82738.313784
5138.010946,148.041188,-1924.535449,-75690.235202
5138.013502,-888.247130,16284.530724,-75230.577904
5138.016065,2368.659014,22650.301825,-80133.589091
5138.018629,1924.535449,25907.207970,-75843.454302
5138.021193,888.247130,16728.654289,-76609.549800
5138.023756,-6069.688724,296.082377,-77682.083497
5138.026320,-2812.782580,-12583.501014,-77988.521696
5138.028883,-7254.018232,-13767.830521,-81972.218286
5138.031447,-5033.400406,-22650.301825,-87641.324971
5138.034010,-4737.318029,5329.482782,-81818.999186
5138.036574,1924.535449,-7105.977043,-79827.150892
5138.039137,4885.359217,29460.196492,-66803.527426
5138.041701,4293.194464,2516.700203,-78754.617194
5138.044264,6217.729913,3404.947333,-65730.993728
5138.046828,-2516.700203,-10807.006753,-83044.751983
5138.049391,-5181.441594,-27979.784608,-88100.982270
5138.051955,-7402.059420,-16432.571912,-81052.903688
5138.054518,740.205942,-1924.535449,-79980.369991
5138.057082,5181.441594,-6513.812290,-78141.740796
5138.059646,1776.494261,10510.924376,-72472.634111
5138.062209,6661.853478,15840.407159,-73238.729609
5138.064773,6513.812290,17468.860231,-76609.549800
5138.067336,-3701.029710,-4589.276840,-83964.066581
5138.069900,2812.782580,-18505.148550,-81818.999186
5138.072463,-1184.329507,-19245.354492,-75077.358804
5138.075027,-4293.194464,-23686.590144,-80286.808190
5138.077590,3108.864956,-3256.906145,-78141.740796
5138.080154,5329.482782,7994.224174,-76915.987999
5138.082717,3404.947333,23390.507767,-74770.920605
5138.085281,3256.906145,12879.583391,-76762.768900
5138.087844,-1332.370696,-16876.695478,-77988.521696
5138.090408,3404.947333,20133.601622,-70634.004916
5138.092972,-3997.112087,-11103.089130,-83351.190182
5138.095535,-3256.906145,-17764.942608,-83044.751983
5138.098100,-5181.441594,-12879.583391,-86109.133975
5138.100669,-1184.329507,12435.459826,-79980.369991
5138.103238,5477.523971,27979.784608,-67876.061123
5138.105807,4737.318029,37898.544230,-66956.746525
5138.108376,2664.741391,5921.647536,-81512.560987
5138.110945,-2072.576638,-11991.336260,-79520.712692
5138.113514,-4589.276840,-19837.519246,-84883.381178
5138.116083,-2220.617826,-9918.759623,-82278.656485
5138.118652,1332.370696,6513.812290,-74464.482406
5138.121221,-1332.370696,-3552.988522,-78601.398095
5138.123790,2368.659014,11251.130318,-75690.235202
5138.126359,6809.894666,32717.102636,-75996.673402
5138.128928,3849.070898,19689.478057,-80593.246390
5138.131498,4293.194464,21614.013506,-68795.375720
5138.134067,-4145.153275,-2960.823768,-78754.617194
5138.136636,-2960.823768,-19541.436869,-81512.560987
5138.139205,-1332.370696,-11103.089130,-82585.094684
5138.141774,1332.370696,1332.370696,-82431.875585
5138.144343,4441.235652,24870.919651,-74617.701505
5138.146912,10658.965565,11991.336260,-75843.454302
5138.149481,2960.823768,5477.523971,-71093.662214
5138.152050,5477.523971,18209.066173,-69561.471218
5138.154619,3552.988522,-3256.906145,-77988.521696
5138.157188,888.247130,-14211.954086,-80286.808190
5138.159757,-5921.647536,-23686.590144,-87488.105872
5138.162326,-4293.194464,-25611.125593,-83657.628382
5138.164895,0.000000,10955.047942,-74617.701505
5138.167464,3108.864956,3404.947333,-76456.330700
5138.170033,7550.100608,29756.278868,-65271.336430
5138.172602,-592.164754,9622.677246,-79061.055394
5138.175172,2516.700203,-9622.677246,-82125.437386
5138.177741,-1776.494261,-21169.889941,-82738.313784
5138.180310,-1924.535449,-25018.960840,-83964.066581
5138.182879,-4737.318029,-25463.084405,-80440.027290
5138.185448,-3404.947333,-24722.878463,-79367.493593
5138.188017,-740.205942,2368.659014,-78448.178995
5138.190586,6661.853478,14804.118840,-79061.055394
5138.193155,8142.265362,24130.713709,-71706.538613
5138.195724,5773.606348,7698.141797,-74770.920605
5138.198293,-1184.329507,-3849.070898,-74924.139704
5138.200866,-4293.194464,-10807.006753,-81818.999186
5138.203439,-3701.029710,-14211.954086,-86109.133975
5138.206012,-1776.494261,2368.659014,-80593.246390
5138.208585,2220.617826,19245.354492,-75690.235202
5138.211158,6513.812290,34493.596897,-70480.785816
5138.213731,3701.029710,28127.825796,-71859.757712
5138.216304,5625.565159,19985.560434,-75843.454302
5138.218877,5181.441594,4293.194464,-76303.111601
5138.221450,-5181.441594,-9770.718434,-82125.437386
5138.224023,-3256.906145,-14063.912898,-83197.971083
5138.226596,-1480.411884,-4885.359217,-77682.083497
5138.229169,2960.823768,5181.441594,-75077.358804
5138.231742,4145.153275,18209.066173,-76609.549800
5138.234315,3849.070898,20133.601622,-80286.808190
5138.236888,3701.029710,18209.066173,-76762.768900
5138.239461,740.205942,10510.924376,-72779.072310
5138.242034,-4589.276840,-6217.729913,-77988.521696
5138.244607,-4145.153275,-444.123565,-76456.330700
5138.247179,-3256.906145,-21762.054695,-87181.667672
5138.249752,0.000000,-13767.830521,-82278.656485
5138.252325,-1184.329507,-888.247130,-80899.684589
5138.254898,6661.853478,5033.400406,-79214.274493
5138.257471,7550.100608,15692.365970,-67722.842023
5138.260044,3552.988522,11103.089130,-71400.100414
5138.262617,-2072.576638,-7550.100608,-78448.178995
5138.265190,-1184.329507,-22946.384202,-81818.999186
5138.267763,-5625.565159,-21169.889941,-87181.667672
5138.270336,-888.247130,-15396.283594,-83657.628382
5138.272909,6661.853478,16728.654289,-70787.224015
5138.275482,4441.235652,17468.860231,-74617.701505
5138.278055,5773.606348,15840.407159,-70634.004916
5138.280628,4737.318029,22798.343014,-73238.729609
5138.283201,296.082377,592.164754,-81665.780087
5138.285774,-444.123565,-6217.729913,-77069.207099
5138.288347,-592.164754,-22354.219448,-81818.999186
5138.290920,-5773.606348,-24574.837274,-77835.302597
5138.293493,-1184.329507,-8142.265362,-79520.712692
5138.296066,2664.741391,-3701.029710,-82431.875585
5138.298639,6069.688724,25315.043216,-71553.319513
5138.301212,4737.318029,12583.501014,-75230.577904
5138.303788,5329.482782,20281.642811,-70634.004916
5138.306364,2812.782580,30644.525999,-70787.224015
5138.308941,6069.688724,23686.590144,-77528.864398
5138.311517,1776.494261,10362.883188,-74004.825107
5138.314093,-7105.977043,-15988.448347,-85189.819378
5138.316669,-5921.647536,-19837.519246,-85649.476676
5138.319246,-296.082377,-3997.112087,-76609.549800
5138.321822,2960.823768,16876.695478,-73238.729609
5138.324398,6069.688724,25463.084405,-76762.768900
5138.326975,8142.265362,19837.519246,-75537.016103
5138.329551,2812.782580,16284.530724,-74617.701505
5138.332127,-5181.441594,-9918.759623,-79673.931792
5138.334703,-2664.741391,-11251.130318,-80286.808190
5138.337280,-592.164754,-11843.295072,-84576.942979
5138.339856,1480.411884,3701.029710,-76303.111601
5138.342432,-5625.565159,5625.565159,-77988.521696
5138.345008,-1184.329507,16284.530724,-83657.628382
5138.347585,6661.853478,27979.784608,-69255.033019
5138.350161,6661.853478,35825.967593,-66190.651027
5138.352737,148.041188,-444.123565,-80593.246390
5138.355314,740.205942,-6069.688724,-79214.274493
5138.357890,-6217.729913,-26943.496289,-89173.515967
5138.360466,-1332.370696,-16876.695478,-82278.656485
5138.363042,-296.082377,-4885.359217,-76609.549800
5138.365619,2664.741391,12583.501014,-74770.920605
5138.368195,6217.729913,17468.860231,-69255.033019
5138.370771,3849.070898,24870.919651,-71093.662214
5138.373347,8734.430116,11399.171507,-77835.302597
5138.375924,2220.617826,2664.741391,-76915.987999
5138.378500,-1480.411884,-20577.725188,-83657.628382
5138.381076,-3997.112087,-27091.537477,-79214.274493
5138.383652,-3256.906145,-13027.624579,-79520.712692
5138.386229,740.205942,-1924.535449,-79673.931792
5138.388805,4737.318029,16136.489536,-72472.634111
5138.391381,2960.823768,15248.242405,-75843.454302
5138.393958,5477.523971,-592.164754,-74311.263306
5138.396534,0.000000,-5625.565159,-73085.510509
5138.399110,-3552.988522,-37750.503042,-89020.296868
5138.401686,-592.164754,-22502.260637,-76915.987999
5138.404263,-5329.482782,-11843.295072,-80593.246390
5138.406841,-6661.853478,-25611.125593,-90705.706963
5138.409420,4885.359217,12139.377449,-69867.909418
5138.411999,6661.853478,30496.484810,-72472.634111
5138.414578,1924.535449,39378.956114,-70174.347617
5138.417157,6069.688724,8586.388927,-78448.178995
5138.419735,-4145.153275,-12731.542202,-83657.628382
5138.422314,-5921.647536,-22354.219448,-86109.133975
5138.424893,-7550.100608,2664.741391,-78141.740796
5138.427472,-2516.700203,10658.965565,-77069.207099
5138.430051,4885.359217,28423.908173,-71093.662214
5138.432629,6217.729913,17912.983796,-78907.836294
5138.435208,3701.029710,24870.919651,-75383.797003
5138.437787,5625.565159,19393.395680,-71400.100414
5138.440366,-148.041188,12731.542202,-74770.920605
5138.442945,-1184.329507,-8882.471304,-82891.532884
5138.445523,-1628.453072,-13175.665768,-81052.903688
5138.448102,-7846.182985,-3849.070898,-83504.409282
5138.450681,-1776.494261,10066.800811,-79980.369991
5138.453260,4737.318029,33161.226202,-70327.566716
5138.455839,4737.318029,27091.537477,-74464.482406
5138.458417,6513.812290,15692.365970,-68642.156621
5138.460996,-1480.411884,-7105.977043,-82125.437386
5138.463575,-1480.411884,-24130.713709,-88100.982270
5138.466154,296.082377,-30200.402434,-81818.999186
5138.468733,-5921.647536,-15248.242405,-76915.987999
5138.471311,-6365.771101,-31680.814318,-89633.173266
5138.473890,6217.729913,4885.359217,-68642.156621
5138.476469,1924.535449,20577.725188,-75537.016103
5138.479048,3404.947333,16432.571912,-76762.768900
5138.481627,7846.182985,6809.894666,-74004.825107
5138.484205,-4441.235652,-20577.725188,-82891.532884
5138.486784,-2220.617826,-20873.807564,-81818.999186
5138.489363,-1480.411884,-20429.683999,-83964.066581
5138.491942,2516.700203,6069.688724,-76303.111601
5138.494521,1480.411884,13027.624579,-74311.263306
5138.497099,1332.370696,-1036.288319,-75996.673402
5138.499678,6957.935855,10955.047942,-74311.263306
5138.502257,6217.729913,8882.471304,-72779.072310
5138.504836,3997.112087,-2664.741391,-77988.521696
5138.507415,-148.041188,-18505.148550,-79061.055394
5138.509994,-5625.565159,-17764.942608,-86109.133975
5138.512574,-4885.359217,-23094.425390,-87488.105872
5138.515154,2812.782580,2220.617826,-72932.291410
5138.517734,3404.947333,28275.866984,-71400.100414
5138.520314,5477.523971,39675.038491,-71859.757712
5138.522893,6957.935855,11251.130318,-76762.768900
5138.525473,0.000000,-2220.617826,-81359.341888
5138.528053,2516.700203,4293.194464,-79827.150892
5138.530633,-592.164754,740.205942,-77222.426198
5138.533213,-5181.441594,-15100.201217,-80746.465489
5138.535792,-3552.988522,-6217.729913,-81052.903688
5138.538372,2072.576638,2220.617826,-80746.465489
5138.540952,5033.400406,20281.642811,-72166.195912
5138.543532,3997.112087,30052.361245,-73698.386908
5138.546112,2812.782580,10658.965565,-75383.797003
5138.548692,4885.359217,3256.906145,-76762.768900
5138.551271,-2368.659014,-9030.512492,-85343.038477
5138.553851,1480.411884,-11547.212695,-82278.656485
5138.556431,-2664.741391,8586.388927,-77069.207099
5138.559011,-2516.700203,888.247130,-78294.959896
5138.561591,296.082377,13767.830521,-78448.178995
5138.564170,9474.636058,17024.736666,-72472.634111
5138.566750,4441.235652,26499.372724,-73851.606007
5138.569330,5921.647536,5921.647536,-79214.274493
5138.571910,740.205942,-14656.077652,-79673.931792
5138.574490,-4293.194464,-34197.514520,-82431.875585
5138.577070,-2664.741391,-17024.736666,-81206.122788
5138.579649,-3701.029710,-14804.118840,-80593.246390
5138.582229,7402.059420,17616.901420,-71093.662214
5138.584809,4145.153275,23834.631332,-74924.139704
5138.587389,3552.988522,9030.512492,-76149.892501
5138.589969,2516.700203,-6957.935855,-67876.061123
5138.592548,4441.235652,1332.370696,-75230.577904
5138.595128,-2516.700203,-9622.677246,-80440.027290
5138.597708,-6365.771101,-21614.013506,-85343.038477
5138.600288,2812.782580,-19097.313304,-82738.313784
5138.602868,-1924.535449,740.205942,-74311.263306
5138.605448,3849.070898,1924.535449,-75383.797003
5138.608027,6513.812290,16580.613101,-70327.566716
5138.610607,6957.935855,592.164754,-77222.426198
5138.613188,444.123565,-10066.800811,-79061.055394
5138.615768,-3997.112087,-22650.301825,-87181.667672
5138.618349,-7698.141797,-23686.590144,-84883.381178
5138.620929,-7105.977043,-13175.665768,-79980.369991
5138.623509,-2368.659014,-5033.400406,-76303.111601
5138.626090,1036.288319,17468.860231,-76762.768900
5138.628670,5625.565159,15396.283594,-82738.313784
5138.631251,13619.789333,31532.773129,-70174.347617
5138.633831,2368.659014,20281.642811,-75843.454302
5138.636412,-2812.782580,-2516.700203,-78601.398095
5138.638992,-2072.576638,-13323.706956,-80286.808190
5138.641573,-5625.565159,-22354.219448,-84270.504780
5138.644153,296.082377,5921.647536,-77069.207099
5138.646733,4885.359217,19393.395680,-78294.959896
5138.649314,4737.318029,23686.590144,-70787.224015
5138.651894,7994.224174,22650.301825,-73391.948708
5138.654475,3256.906145,20725.766376,-79367.493593
5138.657055,6217.729913,7402.059420,-79367.493593
5138.659636,-2220.617826,6957.935855,-76762.768900
5138.662216,-5033.400406,-17172.777854,-83044.751983
5138.664797,-148.041188,9030.512492,-75230.577904
5138.667377,-3256.906145,-7550.100608,-82738.313784
5138.669958,5033.400406,22650.301825,-69101.813920
5138.672538,1776.494261,21465.972318,-79214.274493
5138.675118,5625.565159,-7105.977043,-77835.302597
5138.677699,0.000000,6957.935855,-73085.510509
5138.680279,-6365.771101,-38342.667796,-87488.105872
5138.682860,-1924.535449,-16136.489536,-72012.976812
5138.685440,-2812.782580,-23390.507767,-82891.532884
5138.688021,-5625.565159,-24870.919651,-88713.858668
5138.690601,3404.947333,-444.123565,-74617.701505
5138.693182,2516.700203,14508.036463,-77528.864398
5138.695762,6513.812290,15988.448347,-74158.044206
5138.698342,4145.153275,20577.725188,-71859.757712
5138.700923,1036.288319,-11547.212695,-82738.313784
5138.703503,888.247130,-15692.365970,-80440.027290
5138.706084,-3108.864956,-30200.402434,-83197.971083
5138.708664,-3849.070898,-13471.748144,-77222.426198
5138.711245,2516.700203,8290.306550,-74770.920605
5138.713825,4737.318029,10955.047942,-78141.740796
5138.716372,4145.153275,7402.059420,-79061.055394
5138.718919,9030.512492,26351.331535,-72932.291410
5138.721466,4885.359217,16876.695478,-73698.386908
5138.724012,4293.194464,41747.615129,-64505.240932
5138.726559,0.000000,13175.665768,-75383.797003
5138.729106,-4885.359217,-13767.830521,-82585.094684
5138.731653,-7846.182985,-25611.125593,-89020.296868
5138.734200,-3108.864956,-6365.771101,-82891.532884
5138.736746,5329.482782,21317.931130,-74464.482406
5138.739293,2812.782580,35974.008781,-69255.033019
5138.741840,6661.853478,26943.496289,-74464.482406
5138.744387,7402.059420,-2516.700203,-79980.369991
5138.746934,-888.247130,-5329.482782,-77222.426198
5138.749480,-5625.565159,-19245.354492,-76915.987999
5138.752027,-3256.906145,-9030.512492,-80133.589091
5138.754574,-3108.864956,-10362.883188,-84423.723880
5138.757121,-4737.318029,1628.453072,-80899.684589
5138.759668,2072.576638,20725.766376,-78294.959896
5138.762214,2072.576638,28719.990550,-78141.740796
5138.764761,6365.771101,25167.002028,-72625.853210
5138.767308,2812.782580,18357.107362,-69101.813920
5138.769855,-6957.935855,-12435.459826,-79214.274493
5138.772402,-3701.029710,-14359.995275,-82891.532884
5138.774948,-1036.288319,-24278.754898,-89020.296868
5138.777495,0.000000,-5477.523971,-80746.465489
5138.780042,-5625.565159,-16580.613101,-80746.465489
5138.782589,4145.153275,2812.782580,-73085.510509
5138.785136,2368.659014,16284.530724,-71706.538613
5138.787682,3552.988522,11695.253884,-71553.319513
5138.790229,6809.894666,2960.823768,-78754.617194
5138.792776,-3552.988522,-17912.983796,-87028.448573
5138.795323,-3108.864956,-19837.519246,-80899.684589
5138.797870,-3256.906145,-14359.995275,-81052.903688
5138.800416,592.164754,-2812.782580,-76762.768900
5138.802963,3997.112087,16876.695478,-71093.662214
5138.805510,4441.235652,7550.100608,-78601.398095
5138.808057,1184.329507,2368.659014,-74464.482406
5138.810604,-296.082377,-11251.130318,-74770.920605
5138.813150,4737.318029,-2516.700203,-74770.920605
5138.815697,-1480.411884,-18357.107362,-81665.780087
5138.818251,-3849.070898,-26647.413912,-86262.353075
5138.820805,-8734.430116,-15692.365970,-85802.695776
5138.823359,888.247130,-7994.224174,-77528.864398
5138.825912,9030.512492,50185.962868,-64045.583633
5138.828466,3552.988522,29460.196492,-77069.207099
5138.831020,9770.718434,15396.283594,-71093.662214
5138.833574,-4885.359217,-14359.995275,-83657.628382
5138.836128,-2664.741391,-18505.148550,-89326.735067
5138.838682,-5329.482782,-888.247130,-79520.712692
5138.841235,-3552.988522,-15100.201217,-82125.437386
5138.843789,-3701.029710,-4737.318029,-77222.426198
5138.846343,444.123565,2516.700203,-79827.150892
5138.848897,6069.688724,20429.683999,-74311.263306
5138.851451,5181.441594,25315.043216,-70634.004916
5138.854004,4589.276840,10066.800811,-74617.701505
5138.856558,148.041188,5477.523971,-80593.246390
5138.859112,-4885.359217,-12879.583391,-89326.735067
5138.861666,-2664.741391,-6809.894666,-81052.903688
5138.864220,-1332.370696,16136.489536,-77988.521696
5138.866773,2516.700203,12287.418637,-76149.892501
5138.869327,7846.182985,40859.367998,-60215.106143
5138.871881,4441.235652,11547.212695,-78907.836294
5138.874435,4293.194464,17912.983796,-80593.246390
5138.876989,9918.759623,-4293.194464,-78294.959896
5138.879542,-1628.453072,-17764.942608,-78907.836294
5138.882096,-4885.359217,-25167.002028,-83964.066581
5138.884650,0.000000,-28719.990550,-78601.398095
5138.887204,-2368.659014,4589.276840,-74924.139704
5138.889758,740.205942,7698.141797,-79520.712692
5138.892312,9326.594869,24130.713709,-72319.415011
5138.894865,4145.153275,5477.523971,-75690.235202
5138.897419,592.164754,-5477.523971,-76915.987999
5138.899973,-5181.441594,-23834.631332,-83504.409282
5138.902527,-7994.224174,-18653.189738,-84730.162079
5138.905081,-3108.864956,-24870.919651,-83044.751983
5138.907634,-3849.070898,-14508.036463,-77069.207099
5138.910188,-296.082377,-8882.471304,-79367.493593
5138.912742,5329.482782,13915.871710,-70174.347617
5138.915296,4293.194464,10214.842000,-76456.330700
5138.917850,3552.988522,5773.606348,-77682.083497
5138.920409,-1924.535449,-11843.295072,-81972.218286
5138.922969,-2368.659014,-29904.320057,-86262.353075
5138.925529,-4441.235652,3256.906145,-75230.577904
5138.928089,-4885.359217,10658.965565,-77069.207099
5138.930648,3404.947333,21465.972318,-71859.757712
5138.933208,1776.494261,24130.713709,-77222.426198
5138.935768,6661.853478,24426.796086,-81818.999186
5138.938328,6513.812290,34345.555709,-69255.033019
5138.940888,4885.359217,24426.796086,-75230.577904
5138.943447,-2812.782580,-14656.077652,-80746.465489
5138.946007,-3256.906145,-19097.313304,-81052.903688
5138.948567,-2516.700203,-14804.118840,-85343.038477
5138.951127,-592.164754,444.123565,-75077.358804
5138.953686,5033.400406,25167.002028,-70940.443115
5138.956246,5181.441594,26055.249158,-76762.768900
5138.958806,5477.523971,20725.766376,-75843.454302
5138.961366,-148.041188,2220.617826,-84576.942979
5138.963925,-4589.276840,-9030.512492,-78141.740796
5138.966485,-2072.576638,-1776.494261,-74464.482406
5138.969045,-3849.070898,-13175.665768,-77988.521696
5138.971605,-1924.535449,-12139.377449,-81052.903688
5138.974165,-1036.288319,3108.864956,-81512.560987
5138.976724,6957.935855,-2072.576638,-80593.246390
5138.979284,4441.235652,22354.219448,-73391.948708
5138.981844,1776.494261,2516.700203,-79520.712692
5138.984404,2368.659014,-7254.018232,-69408.252119
5138.986963,-4589.276840,-22650.301825,-83044.751983
5138.989523,-4737.318029,-29312.155303,-83964.066581
5138.992083,2072.576638,-3849.070898,-80133.589091
5138.994643,0.000000,10510.924376,-78294.959896
5138.997202,2220.617826,2072.576638,-76149.892501
5138.999762,6069.688724,20873.807564,-73238.729609
5139.002322,6809.894666,22058.137072,-77835.302597
5139.004882,4885.359217,5033.400406,-74004.825107
5139.007442,1036.288319,-15396.283594,-76762.768900
5139.010001,-3108.864956,-34641.638086,-83657.628382
5139.012561,-2220.617826,-23242.466579,-75230.577904
5139.015121,-148.041188,-8290.306550,-80746.465489
5139.017681,5625.565159,11547.212695,-81359.341888
5139.020240,6365.771101,19097.313304,-76762.768900
5139.022804,3256.906145,7994.224174,-75690.235202
5139.025368,1628.453072,14508.036463,-70634.004916
5139.027932,4589.276840,27387.619854,-71553.319513
5139.030496,-1924.535449,-19541.436869,-81665.780087
5139.033060,-5181.441594,-19689.478057,-83504.409282
5139.035624,-9326.594869,-13915.871710,-88867.077768
5139.038188,296.082377,21465.972318,-77069.207099
5139.040752,6661.853478,26351.331535,-77069.207099
5139.043316,5329.482782,27979.784608,-71246.881314
5139.045880,1628.453072,7846.182985,-75537.016103
5139.048444,1184.329507,-3997.112087,-78141.740796
5139.051008,-5033.400406,-9770.718434,-77528.864398
5139.053572,-3552.988522,-7402.059420,-81359.341888
5139.056136,-2812.782580,3701.029710,-81818.999186
5139.058700,1184.329507,-6809.894666,-84883.381178
5139.061264,-2220.617826,17468.860231,-78294.959896
5139.063828,6365.771101,19097.313304,-78294.959896
5139.066392,8438.347739,33309.267390,-65118.117330
5139.068956,-1184.329507,14359.995275,-72625.853210
5139.071520,148.041188,-1924.535449,-75690.235202
5139.074084,-2368.659014,-22946.384202,-86415.572174
5139.076648,-3701.029710,-35381.844028,-89173.515967
5139.079212,-740.205942,-9178.553681,-77988.521696
5139.081776,2812.782580,7402.059420,-78294.959896
5139.084340,7550.100608,21465.972318,-69255.033019
5139.086904,7994.224174,13471.748144,-70174.347617
5139.089468,7698.141797,12287.418637,-75077.358804
5139.092032,2516.700203,14211.954086,-74004.825107
5139.094596,592.164754,-15248.242405,-82431.875585
5139.097160,-1924.535449,-19097.313304,-81359.341888
5139.099724,-6069.688724,-12287.418637,-81206.122788
5139.102288,-1184.329507,-4589.276840,-81359.341888
5139.104852,2960.823768,-1628.453072,-79214.274493
5139.107416,4737.318029,11251.130318,-72166.195912
5139.109980,4441.235652,3997.112087,-72779.072310
5139.112544,2516.700203,-4145.153275,-71706.538613
5139.115108,-6809.894666,-16284.530724,-83504.409282
5139.117671,-4589.276840,-34197.514520,-90399.268764
5139.120235,-3404.947333,-10658.965565,-85036.600278
5139.122799,-3997.112087,-1480.411884,-83657.628382
5139.125367,-4589.276840,8734.430116,-74464.482406
5139.127935,2960.823768,40415.244433,-67109.965625
5139.130502,444.123565,16432.571912,-79673.931792
5139.133070,9474.636058,13767.830521,-71859.757712
5139.135638,4589.276840,5773.606348,-80593.246390
5139.138206,1184.329507,11991.336260,-81359.341888
5139.140773,-4589.276840,3552.988522,-77528.864398
5139.143341,-148.041188,-35085.761651,-87488.105872
5139.145909,-3108.864956,-7550.100608,-78448.178995
5139.148477,-1628.453072,2220.617826,-78448.178995
5139.151044,7105.977043,21614.013506,-69561.471218
5139.153612,1332.370696,19541.436869,-74311.263306
5139.156180,9474.636058,30792.567187,-78907.836294
5139.158747,3997.112087,29904.320057,-77682.083497
5139.161315,7550.100608,10658.965565,-77988.521696
5139.163883,-5329.482782,2072.576638,-78141.740796
5139.166451,-2960.823768,-22650.301825,-79827.150892
5139.169018,-3552.988522,-7846.182985,-75230.577904
5139.171586,296.082377,-5625.565159,-80899.684589
5139.174154,6957.935855,10510.924376,-78141.740796
5139.176722,9030.512492,12287.418637,-77375.645298
5139.179289,3701.029710,10214.842000,-75996.673402
5139.181857,-2664.741391,-10658.965565,-77375.645298
5139.184425,-1480.411884,-27831.743419,-73085.510509
5139.186992,-2664.741391,-20577.725188,-80440.027290
5139.189560,-5625.565159,-30200.402434,-85955.914876
5139.192128,296.082377,-10955.047942,-75843.454302
5139.194696,1776.494261,11251.130318,-81512.560987
5139.197263,3997.112087,19985.560434,-78141.740796
5139.199831,10955.047942,21465.972318,-69561.471218
5139.202399,1776.494261,444.123565,-79520.712692
5139.204967,-740.205942,-25018.960840,-80593.246390
5139.207534,-3552.988522,-34493.596897,-76915.987999
5139.210102,-5033.400406,-19245.354492,-78754.617194
5139.212670,-1332.370696,-740.205942,-79980.369991
5139.215238,-1184.329507,-15988.448347,-84423.723880
5139.217805,2368.659014,8142.265362,-80746.465489
5139.220373,6217.729913,32421.020260,-72012.976812
5139.222941,4293.194464,46040.809592,-64352.021832
5139.225508,1480.411884,0.000000,-81512.560987
5139.228079,-2220.617826,-12435.459826,-75843.454302
5139.230650,-4589.276840,-22798.343014,-84423.723880
5139.233221,-1480.411884,-3701.029710,-82738.313784
5139.235792,740.205942,25315.043216,-77375.645298
5139.238362,4145.153275,25018.960840,-77528.864398
5139.240933,8290.306550,19837.519246,-74311.263306
5139.243504,2516.700203,4737.318029,-76609.549800
5139.246075,-4589.276840,-7105.977043,-76303.111601
5139.248646,2368.659014,7994.224174,-72012.976812
5139.251216,-1036.288319,1332.370696,-78601.398095
5139.253787,-8734.430116,-6809.894666,-87794.544071
5139.256358,-1628.453072,2812.782580,-85496.257577
5139.258929,1924.535449,10658.965565,-81512.560987
5139.261500,6069.688724,30496.484810,-70787.224015
5139.264070,7105.977043,23982.672521,-66650.308326
5139.266641,148.041188,7846.182985,-71246.881314
5139.269212,-2368.659014,-11843.295072,-79520.712692
5139.271783,-2960.823768,-36122.049970,-91778.240660
5139.274354,-296.082377,-26647.413912,-83964.066581
5139.276924,-2072.576638,-11547.212695,-76609.549800
5139.279495,-11103.089130,-17912.983796,-85343.038477
5139.282066,7698.141797,1184.329507,-68948.594820
5139.284637,5477.523971,15396.283594,-72012.976812
5139.287207,2960.823768,12139.377449,-75537.016103
5139.289778,5033.400406,10214.842000,-74770.920605
5139.292349,-4441.235652,-18357.107362,-87488.105872
5139.294920,-5625.565159,-16136.489536,-80440.027290
5139.297491,-2960.823768,-13175.665768,-80746.465489
5139.300061,-4293.194464,-9178.553681,-79520.712692
5139.302632,6217.729913,5033.400406,-71246.881314
5139.305203,7846.182985,9030.512492,-71859.757712
5139.307774,2220.617826,6957.935855,-73698.386908
5139.310347,4589.276840,15692.365970,-75537.016103
5139.312920,-1480.411884,-2812.782580,-78294.959896
5139.315493,-1628.453072,-30792.567187,-88867.077768
5139.318066,-5181.441594,-4293.194464,-78141.740796
5139.320639,-7698.141797,13471.748144,-79673.931792
5139.323212,2072.576638,9326.594869,-75383.797003
5139.325785,4737.318029,30496.484810,-69867.909418
5139.328358,4145.153275,11399.171507,-80440.027290
5139.330931,7105.977043,21021.848753,-72166.195912
5139.333504,-3701.029710,1480.411884,-82278.656485
5139.336077,-7550.100608,-11695.253884,-86568.791274
5139.338650,-1628.453072,-14211.954086,-82891.532884
5139.341223,-3256.906145,-12139.377449,-80133.589091
5139.343796,-5921.647536,-7402.059420,-80899.684589
5139.346369,5773.606348,17764.942608,-67416.403824
5139.348942,3256.906145,33901.432144,-75690.235202
5139.351515,1480.411884,20429.683999,-81665.780087
5139.354088,5625.565159,21762.054695,-73698.386908
5139.356661,-4885.359217,-1332.370696,-86109.133975
5139.359234,-4737.318029,-17024.736666,-78141.740796
5139.361807,-1480.411884,-2812.782580,-74311.263306
5139.364380,-3849.070898,-5329.482782,-80593.246390
5139.366953,7402.059420,9622.677246,-69255.033019
5139.369526,4441.235652,17320.819043,-81972.218286
5139.372099,3997.112087,3849.070898,-85955.914876
5139.374672,7846.182985,28275.866984,-62360.173537
5139.377245,3256.906145,-888.247130,-78601.398095
5139.379818,-2664.741391,-25907.207970,-81206.122788
5139.382391,-1480.411884,-26351.331535,-80286.808190
5139.384964,-6365.771101,-21465.972318,-82125.437386
5139.387537,740.205942,4885.359217,-75537.016103
5139.390110,4441.235652,18949.272115,-77682.083497
5139.392683,3552.988522,24130.713709,-75996.673402
5139.395256,6661.853478,5181.441594,-73698.386908
5139.397829,-5921.647536,-20577.725188,-81206.122788
5139.400402,-4737.318029,-38638.750172,-77069.207099
5139.402975,-592.164754,-32865.143825,-77528.864398
5139.405548,-3256.906145,-12731.542202,-78141.740796
5139.408121,-5921.647536,-22946.384202,-91165.364262
5139.410694,8290.306550,2960.823768,-74617.701505
5139.413268,4589.276840,31828.855506,-77528.864398
5139.415843,3997.112087,38934.832549,-70174.347617
5139.418417,5921.647536,24574.837274,-71093.662214
5139.420992,-6957.935855,-21317.931130,-84423.723880
5139.423566,-2516.700203,-21317.931130,-78448.178995
5139.426141,0.000000,-8142.265362,-83197.971083
5139.428715,-5329.482782,16876.695478,-79980.369991
5139.431290,4293.194464,34197.514520,-71553.319513
5139.433864,1480.411884,15544.324782,-77682.083497
5139.436439,6513.812290,15100.201217,-78601.398095
5139.439013,9030.512492,17616.901420,-66650.308326
5139.441588,592.164754,10214.842000,-74158.044206
5139.444162,1480.411884,-148.041188,-79061.055394
5139.446737,-1924.535449,-8290.306550,-81972.218286
5139.449311,-3552.988522,4885.359217,-88867.077768
5139.451886,1924.535449,6217.729913,-85802.695776
5139.454460,7105.977043,36122.049970,-68335.718422
5139.457035,5625.565159,22354.219448,-72779.072310
5139.459609,4589.276840,14656.077652,-64811.679131
5139.462184,-5033.400406,-20725.766376,-79673.931792
5139.464758,-1924.535449,-12435.459826,-84883.381178
5139.467333,-2664.741391,-21614.013506,-84730.162079
5139.469907,-4589.276840,-25463.084405,-85036.600278
5139.472482,-6513.812290,-12731.542202,-80286.808190
5139.475056,1480.411884,3108.864956,-74158.044206
5139.477631,2368.659014,7846.182985,-71553.319513
5139.480205,3701.029710,18801.230927,-70021.128517
5139.482779,4589.276840,14063.912898,-77988.521696
5139.485354,-1776.494261,-19689.478057,-80899.684589
5139.487928,-148.041188,-15248.242405,-82891.532884
5139.490503,-10510.924376,-22502.260637,-91318.583362
5139.493077,2812.782580,-17320.819043,-75996.673402
5139.495652,-1628.453072,-17320.819043,-70940.443115
5139.498226,-740.205942,-3997.112087,-78448.178995
5139.500801,7402.059420,20577.725188,-71093.662214
5139.503375,8734.430116,23686.590144,-73238.729609
5139.505950,-592.164754,-11103.089130,-84117.285680
5139.508524,444.123565,-2812.782580,-79827.150892
5139.511099,-12435.459826,-9918.759623,-86568.791274
5139.513673,-2368.659014,444.123565,-77069.207099
5139.516248,-1480.411884,13323.706956,-73085.510509
5139.518823,3997.112087,11991.336260,-75383.797003
5139.521398,6661.853478,34049.473332,-70327.566716
5139.523973,-2368.659014,16876.695478,-79214.274493
5139.526548,9030.512492,24426.796086,-75537.016103
5139.529123,3108.864956,13027.624579,-78601.398095
5139.531698,-1628.453072,-25018.960840,-85036.600278
5139.534273,-2516.700203,-15100.201217,-75383.797003
5139.536848,-1776.494261,-8734.430116,-77988.521696
5139.539423,2812.782580,20429.683999,-70634.004916
5139.541998,2368.659014,30348.443622,-77988.521696
5139.544572,3701.029710,24278.754898,-84576.942979
5139.547147,6957.935855,20281.642811,-77222.426198
5139.549722,-2072.576638,4145.153275,-78141.740796
5139.552297,-1480.411884,-17172.777854,-76303.111601
5139.554872,-2368.659014,-8882.471304,-73851.606007
5139.557447,-8734.430116,-47077.097911,-86568.791274
5139.560022,-4589.276840,-26647.413912,-82891.532884
5139.562597,-6513.812290,-16876.695478,-89020.296868
5139.565172,-4145.153275,-12583.501014,-82278.656485
5139.567747,5033.400406,19689.478057,-69561.471218
5139.570322,3552.988522,4293.194464,-73545.167808
5139.572897,5477.523971,17172.777854,-67876.061123
5139.575472,-1776.494261,-5773.606348,-78448.178995
5139.578047,-1628.453072,-9918.759623,-78294.959896
5139.580622,-3404.947333,-20133.601622,-86568.791274
5139.583196,-4441.235652,-11843.295072,-86875.229473
5139.585771,148.041188,-444.123565,-77988.521696
5139.588346,2960.823768,3849.070898,-71553.319513
5139.590921,3849.070898,9918.759623,-70480.785816
5139.593496,4293.194464,14359.995275,-73851.606007
5139.596071,6957.935855,11103.089130,-72472.634111
5139.598646,-296.082377,-296.082377,-80440.027290
5139.601221,-3849.070898,-31532.773129,-89786.392366
5139.603796,-1480.411884,6513.812290,-79367.493593
5139.606371,-7994.224174,1924.535449,-82585.094684
5139.608946,5033.400406,20281.642811,-68335.718422
5139.611521,5181.441594,21910.095883,-73238.729609
5139.614096,5329.482782,18801.230927,-75690.235202
5139.616671,8142.265362,16728.654289,-74158.044206
5139.619246,-6217.729913,-148.041188,-83504.409282
5139.621821,-7994.224174,-15100.201217,-81972.218286
5139.624396,-5033.400406,-18357.107362,-82585.094684
5139.626972,-444.123565,-15248.242405,-79980.369991
5139.629547,-4145.153275,-6513.812290,-77528.864398
5139.632122,4293.194464,16432.571912,-70787.224015
5139.634698,4441.235652,29904.320057,-74617.701505
5139.637273,1480.411884,33013.185013,-80440.027290
5139.639848,6957.935855,9770.718434,-78907.836294
5139.642424,-740.205942,10066.800811,-78601.398095
5139.644999,-6217.729913,-22502.260637,-86109.133975
5139.647574,-296.082377,-7994.224174,-69561.471218
5139.650150,-2812.782580,-4589.276840,-78754.617194
5139.652725,5033.400406,-2072.576638,-77528.864398
5139.655300,4293.194464,592.164754,-77069.207099
5139.657875,7846.182985,22206.178260,-78601.398095
5139.660451,444.123565,22206.178260,-73851.606007
5139.663026,5033.400406,2516.700203,-71859.757712
5139.665601,-4737.318029,-26499.372724,-79827.150892
5139.668177,-5921.647536,-32124.937883,-82738.313784
5139.670752,-2960.823768,-17172.777854,-78601.398095
5139.673327,740.205942,6957.935855,-78754.617194
5139.675903,2220.617826,15544.324782,-76609.549800
5139.678478,7994.224174,15396.283594,-78141.740796
5139.681053,4293.194464,-3404.947333,-77528.864398
5139.683629,888.247130,-18209.066173,-74311.263306
5139.686204,-740.205942,-10362.883188,-71859.757712
5139.688779,-2516.700203,-11695.253884,-75843.454302
5139.691354,-7698.141797,-24130.713709,-87794.544071
5139.693930,-2072.576638,-23094.425390,-86109.133975
5139.696505,4441.235652,19837.519246,-79061.055394
5139.699080,2812.782580,33013.185013,-73851.606007
5139.701656,5329.482782,41007.409187,-67722.842023
5139.704231,1776.494261,4737.318029,-76303.111601
5139.706806,2516.700203,-8882.471304,-74770.920605
5139.709382,-4737.318029,-15100.201217,-83964.066581
5139.711957,-10066.800811,-4145.153275,-85955.914876
5139.714532,-148.041188,9622.677246,-79520.712692
5139.717108,148.041188,-5033.400406,-81818.999186
5139.719683,-1332.370696,444.123565,-79214.274493
5139.722258,6217.729913,15988.448347,-68948.594820
5139.724834,444.123565,20873.807564,-74158.044206
5139.727410,4737.318029,19985.560434,-72625.853210
5139.729985,-1924.535449,12139.377449,-79520.712692
5139.732561,-5773.606348,-8438.347739,-89326.735067
5139.735136,-1776.494261,-2072.576638,-84576.942979
5139.737712,-2072.576638,5033.400406,-79980.369991
5139.740288,6217.729913,13915.871710,-72012.976812
5139.742863,8290.306550,27091.537477,-65271.336430
5139.745439,4737.318029,-7402.059420,-77988.521696
5139.748014,5477.523971,3552.988522,-76915.987999
5139.750590,7105.977043,15692.365970,-76149.892501
5139.753166,-4589.276840,-18653.189738,-85189.819378
5139.755741,-1036.288319,-19541.436869,-79673.931792
5139.758317,-1924.535449,-29164.114115,-82738.313784
5139.760892,-592.164754,-5773.606348,-74464.482406
