#time,accel_x,accel_y,accel_z
2394.212756,-148.041188,444.123565,-78294.959896
2394.215315,296.082377,1924.535449,-77988.521696
2394.217873,148.041188,1332.370696,-77988.521696
2394.220431,-296.082377,2516.700203,-77375.645298
2394.222989,-444.123565,2368.659014,-77988.521696
2394.225548,1036.288319,1184.329507,-78754.617194
2394.228106,-296.082377,1036.288319,-79367.493593
2394.230664,296.082377,0.000000,-78601.398095
2394.233222,0.000000,740.205942,-77988.521696
2394.235781,0.000000,1184.329507,-78294.959896
2394.238339,296.082377,1628.453072,-77682.083497
2394.240897,148.041188,1332.370696,-77835.302597
2394.243455,148.041188,1480.411884,-77988.521696
2394.246014,-296.082377,1924.535449,-78448.178995
2394.248572,-444.123565,1628.453072,-77988.521696
2394.251130,592.164754,888.247130,-77988.521696
2394.253688,1628.453072,148.041188,-78141.740796
2394.256247,1480.411884,2516.700203,-77528.864398
2394.258805,4145.153275,148.041188,-79214.274493
2394.261363,3701.029710,2220.617826,-77682.083497
2394.263921,8734.430116,2812.782580,-79061.055394
2394.266480,1776.494261,-1628.453072,-78907.836294
2394.269035,4441.235652,3552.988522,-78141.740796
2394.271590,3108.864956,3404.947333,-77375.645298
2394.274145,296.082377,-1036.288319,-77835.302597
2394.276700,7994.224174,2812.782580,-77682.083497
2394.279255,8438.347739,1480.411884,-78754.617194
2394.281810,5477.523971,444.123565,-78601.398095
2394.284366,2072.576638,1776.494261,-79367.493593
2394.286921,-8586.388927,-296.082377,-78448.178995
2394.289476,-9326.594869,3849.070898,-77988.521696
2394.292031,-6069.688724,444.123565,-77682.083497
2394.294586,2220.617826,1332.370696,-77375.645298
2394.297141,2664.741391,2516.700203,-77682.083497
2394.299696,740.205942,-740.205942,-78141.740796
2394.302251,-7846.182985,2368.659014,-77528.864398
2394.304807,-4589.276840,4145.153275,-77988.521696
2394.307362,-11103.089130,-3108.864956,-80746.465489
2394.309917,4885.359217,4737.318029,-75996.673402
2394.312472,-1776.494261,1332.370696,-77375.645298
2394.315027,-5329.482782,148.041188,-76149.892501
2394.317582,-4737.318029,6513.812290,-75537.016103
2394.320137,-2516.700203,-3849.070898,-81512.560987
2394.322693,1776.494261,888.247130,-78448.178995
2394.325248,1036.288319,2960.823768,-79367.493593
2394.327803,-1332.370696,-740.205942,-76915.987999
2394.330358,-6661.853478,3404.947333,-75383.797003
2394.332913,-6069.688724,2072.576638,-77835.302597
2394.335468,-6809.894666,-1184.329507,-78907.836294
2394.338023,-2072.576638,1776.494261,-78907.836294
2394.340578,-1036.288319,444.123565,-79061.055394
2394.343134,-4441.235652,1184.329507,-76762.768900
2394.345689,296.082377,2960.823768,-77375.645298
2394.348244,-3552.988522,-1628.453072,-79673.931792
2394.350799,-4589.276840,888.247130,-76915.987999
2394.353354,-7846.182985,2072.576638,-80286.808190
2394.355909,-6365.771101,2516.700203,-76456.330700
2394.358464,148.041188,2664.741391,-76762.768900
2394.361019,-2516.700203,148.041188,-80440.027290
2394.363575,1480.411884,2960.823768,-76456.330700
2394.366130,-1924.535449,-2220.617826,-80746.465489
2394.368685,6809.894666,2516.700203,-77375.645298
2394.371105,-3701.029710,1776.494261,-77069.207099
2394.373526,1332.370696,5033.400406,-78141.740796
2394.375947,-8290.306550,-444.123565,-77528.864398
2394.378368,4441.235652,1924.535449,-80133.589091
2394.380789,6809.894666,888.247130,-76456.330700
2394.383210,6957.935855,-2368.659014,-79214.274493
2394.385631,8438.347739,7550.100608,-75996.673402
2394.388052,-3552.988522,-3701.029710,-79520.712692
2394.390474,1332.370696,3552.988522,-77988.521696
2394.392895,296.082377,2072.576638,-79061.055394
2394.395316,3701.029710,740.205942,-77835.302597
2394.397737,7994.224174,3404.947333,-76456.330700
2394.400158,5773.606348,-1036.288319,-77988.521696
2394.402579,3849.070898,1776.494261,-77069.207099
2394.405000,740.205942,1776.494261,-78601.398095
2394.407421,3997.112087,592.164754,-79673.931792
2394.409843,-1332.370696,1924.535449,-77375.645298
2394.412264,444.123565,1332.370696,-77222.426198
2394.414685,5625.565159,444.123565,-77222.426198
2394.417106,1332.370696,1924.535449,-78141.740796
2394.419527,-2516.700203,-592.164754,-78754.617194
2394.421948,1332.370696,3404.947333,-79061.055394
2394.424369,2960.823768,3108.864956,-77682.083497
2394.426790,3108.864956,1332.370696,-77988.521696
2394.429211,7698.141797,888.247130,-77988.521696
2394.431633,4145.153275,-1924.535449,-78141.740796
2394.434054,4293.194464,1776.494261,-78141.740796
2394.436475,1924.535449,3256.906145,-77682.083497
2394.438896,4145.153275,1480.411884,-78907.836294
2394.441317,592.164754,1924.535449,-76915.987999
2394.443738,3108.864956,2812.782580,-77988.521696
2394.446159,3849.070898,-148.041188,-76915.987999
2394.448580,2960.823768,-3256.906145,-78907.836294
2394.451001,7402.059420,2960.823768,-76149.892501
2394.453423,2812.782580,1628.453072,-78754.617194
2394.455844,7105.977043,444.123565,-80286.808190
2394.458265,-2220.617826,7254.018232,-77988.521696
2394.460686,-444.123565,-1332.370696,-78907.836294
2394.463107,-296.082377,1480.411884,-75996.673402
2394.465528,-7105.977043,-592.164754,-77069.207099
2394.467993,-2072.576638,1332.370696,-77988.521696
2394.470458,10510.924376,-148.041188,-76762.768900
2394.472922,-3552.988522,2812.782580,-79520.712692
2394.475387,1628.453072,3404.947333,-78907.836294
2394.477852,-9326.594869,1924.535449,-78141.740796
2394.480317,-5477.523971,148.041188,-77528.864398
2394.482781,-8290.306550,2812.782580,-75843.454302
2394.485246,444.123565,-2960.823768,-79367.493593
2394.487711,2368.659014,1184.329507,-78294.959896
2394.490176,1776.494261,3552.988522,-78294.959896
2394.492640,-7550.100608,888.247130,-80593.246390
2394.495105,-7105.977043,148.041188,-77988.521696
2394.497570,-3997.112087,3404.947333,-76609.549800
2394.500035,888.247130,-3701.029710,-78294.959896
2394.502499,2516.700203,3701.029710,-75996.673402
2394.504964,-1628.453072,0.000000,-79367.493593
2394.507429,-3108.864956,3849.070898,-77222.426198
2394.509894,-2072.576638,3404.947333,-79061.055394
2394.512358,-2516.700203,-444.123565,-79980.369991
2394.514823,-1924.535449,2516.700203,-74924.139704
2394.517288,-3108.864956,-888.247130,-78907.836294
2394.519753,-3108.864956,1480.411884,-76609.549800
2394.522217,-4293.194464,888.247130,-79214.274493
2394.524682,-7994.224174,2220.617826,-79827.150892
2394.527147,-4589.276840,444.123565,-78754.617194
2394.529612,-3849.070898,888.247130,-77528.864398
2394.532076,888.247130,2072.576638,-77069.207099
2394.534541,-888.247130,444.123565,-76762.768900
2394.537006,-5477.523971,-2220.617826,-80593.246390
2394.539470,-4737.318029,3552.988522,-77069.207099
2394.541935,-5625.565159,-740.205942,-80440.027290
2394.544400,-2960.823768,1628.453072,-77375.645298
2394.546865,-3849.070898,2368.659014,-78754.617194
2394.549329,1184.329507,1332.370696,-78754.617194
2394.551794,-444.123565,148.041188,-77682.083497
2394.554259,4737.318029,592.164754,-78907.836294
2394.556724,-2960.823768,-2664.741391,-79827.150892
2394.559188,4293.194464,4885.359217,-76456.330700
2394.561653,-2812.782580,296.082377,-77988.521696
2394.564118,3997.112087,1036.288319,-79980.369991
2394.566615,2960.823768,3849.070898,-75996.673402
2394.569112,4441.235652,-2368.659014,-80440.027290
2394.571608,6809.894666,6661.853478,-75077.358804
2394.574105,-740.205942,-4589.276840,-80593.246390
2394.576602,4293.194464,2072.576638,-77375.645298
2394.579099,4145.153275,2960.823768,-78141.740796
2394.581595,4885.359217,-296.082377,-79520.712692
2394.584092,5329.482782,2812.782580,-76303.111601
2394.586589,2516.700203,1776.494261,-77528.864398
2394.589086,9918.759623,-740.205942,-76609.549800
2394.591583,-740.205942,1184.329507,-77988.521696
2394.594079,2072.576638,1184.329507,-79520.712692
2394.596576,-3256.906145,888.247130,-78448.178995
2394.599073,5181.441594,1924.535449,-78754.617194
2394.601570,3849.070898,2220.617826,-78448.178995
2394.604066,-1776.494261,1036.288319,-78294.959896
2394.606563,-3701.029710,-1184.329507,-78448.178995
2394.609060,5329.482782,1628.453072,-77988.521696
2394.611557,3701.029710,3701.029710,-76762.768900
2394.614054,2516.700203,-1480.411884,-81512.560987
2394.616550,5477.523971,5477.523971,-76149.892501
2394.619047,6809.894666,148.041188,-79520.712692
2394.621544,3552.988522,1480.411884,-77375.645298
2394.624041,-1924.535449,444.123565,-78141.740796
2394.626537,6217.729913,1332.370696,-78907.836294
2394.629034,3108.864956,3256.906145,-77069.207099
2394.631531,1332.370696,0.000000,-80133.589091
2394.634028,2368.659014,3552.988522,-78141.740796
2394.636525,5033.400406,-740.205942,-78141.740796
2394.639021,3849.070898,148.041188,-77988.521696
2394.641518,1332.370696,4885.359217,-76915.987999
2394.644015,444.123565,-2220.617826,-79673.931792
2394.646512,-4885.359217,3552.988522,-77835.302597
2394.649008,-4885.359217,-2368.659014,-79061.055394
2394.651505,-148.041188,5773.606348,-76609.549800
2394.654002,-6809.894666,0.000000,-79214.274493
2394.656499,4293.194464,-444.123565,-77222.426198
2394.658996,-4885.359217,2220.617826,-76149.892501
2394.661492,-5921.647536,444.123565,-79061.055394
2394.663989,-10214.842000,1480.411884,-77682.083497
2394.666509,-3256.906145,1332.370696,-79673.931792
2394.669030,-2368.659014,1480.411884,-77375.645298
2394.671550,2516.700203,2072.576638,-77682.083497
2394.674070,-3849.070898,-148.041188,-78141.740796
2394.676591,-2812.782580,1332.370696,-77375.645298
2394.679111,-8882.471304,2516.700203,-77682.083497
2394.681631,-3552.988522,-592.164754,-78754.617194
2394.684152,1332.370696,4293.194464,-77222.426198
2394.686672,-3552.988522,-1332.370696,-80133.589091
2394.689192,2812.782580,2220.617826,-77069.207099
2394.691713,-3552.988522,1036.288319,-77682.083497
2394.694233,-592.164754,444.123565,-77988.521696
2394.696753,148.041188,2220.617826,-78448.178995
2394.699274,-1036.288319,2072.576638,-79520.712692
2394.701794,-7402.059420,0.000000,-77835.302597
2394.704314,-2220.617826,4885.359217,-76456.330700
2394.706835,-8142.265362,740.205942,-79673.931792
2394.709355,-4885.359217,444.123565,-77682.083497
2394.711875,-4885.359217,-2220.617826,-78294.959896
2394.714396,1776.494261,6217.729913,-76456.330700
2394.716916,-3404.947333,1184.329507,-77835.302597
2394.719436,-1480.411884,-1480.411884,-79367.493593
2394.721957,-6809.894666,7402.059420,-75843.454302
2394.724477,-8142.265362,-2960.823768,-79673.931792
2394.726997,-888.247130,888.247130,-77375.645298
2394.729518,-4441.235652,-1036.288319,-79827.150892
2394.732038,5181.441594,3997.112087,-75996.673402
2394.734558,-9474.636058,-1036.288319,-79367.493593
2394.737079,6365.771101,3552.988522,-77988.521696
2394.739599,-148.041188,-3404.947333,-78601.398095
2394.742119,4145.153275,5477.523971,-77682.083497
2394.744640,-2516.700203,-1036.288319,-77835.302597
2394.747160,2368.659014,1184.329507,-77682.083497
2394.749680,6661.853478,1776.494261,-77988.521696
2394.752200,5625.565159,1480.411884,-77988.521696
2394.754721,2368.659014,2516.700203,-78601.398095
2394.757241,4293.194464,888.247130,-78601.398095
2394.759761,-888.247130,2812.782580,-75996.673402
2394.762282,-444.123565,-296.082377,-78601.398095
2394.764802,2960.823768,1924.535449,-76303.111601
2394.767337,7698.141797,3256.906145,-77222.426198
2394.769872,6957.935855,148.041188,-80133.589091
2394.772407,592.164754,3404.947333,-77222.426198
2394.774943,-444.123565,1628.453072,-79214.274493
2394.777478,2664.741391,3849.070898,-76609.549800
2394.780013,8290.306550,1036.288319,-78448.178995
2394.782548,3849.070898,-3997.112087,-80593.246390
2394.785083,2072.576638,3552.988522,-75383.797003
2394.787618,-2812.782580,0.000000,-79061.055394
2394.790153,3108.864956,3849.070898,-77988.521696
2394.792688,2516.700203,-888.247130,-77682.083497
2394.795223,6365.771101,4589.276840,-78141.740796
2394.797758,11251.130318,-1628.453072,-78448.178995
2394.800293,3849.070898,-444.123565,-77988.521696
2394.802829,4441.235652,1776.494261,-77069.207099
2394.805364,-1036.288319,-1480.411884,-77988.521696
2394.807899,5773.606348,2960.823768,-78754.617194
2394.810434,3997.112087,296.082377,-79061.055394
2394.812969,6217.729913,1480.411884,-77682.083497
2394.815504,1480.411884,2960.823768,-78448.178995
2394.818039,7846.182985,-3404.947333,-79061.055394
2394.820574,3552.988522,-148.041188,-77835.302597
2394.823109,2072.576638,4441.235652,-78141.740796
2394.825644,5033.400406,-1628.453072,-79367.493593
2394.828180,-444.123565,2664.741391,-78294.959896
2394.830715,-5329.482782,-444.123565,-79214.274493
2394.833250,-3849.070898,6957.935855,-75690.235202
2394.835785,-8142.265362,-2220.617826,-81818.999186
2394.838320,3701.029710,1184.329507,-76149.892501
2394.840855,-1776.494261,1924.535449,-78907.836294
2394.843390,-888.247130,592.164754,-78754.617194
2394.845925,-10510.924376,2220.617826,-78141.740796
2394.848460,-4737.318029,1480.411884,-80286.808190
2394.850995,-6809.894666,2220.617826,-77528.864398
2394.853531,-1036.288319,2072.576638,-77682.083497
2394.856066,-444.123565,888.247130,-77375.645298
2394.858601,-5329.482782,2368.659014,-76762.768900
2394.861136,-6809.894666,1036.288319,-78448.178995
2394.863671,-7550.100608,592.164754,-79520.712692
2394.866206,-1924.535449,-1184.329507,-79214.274493
2394.868752,-1924.535449,2664.741391,-77835.302597
2394.871299,-5921.647536,1628.453072,-76149.892501
2394.873845,-5477.523971,1776.494261,-77069.207099
2394.876391,1628.453072,740.205942,-77375.645298
2394.878938,-3404.947333,1036.288319,-79980.369991
2394.881484,-2812.782580,444.123565,-81512.560987
2394.884030,-4293.194464,1480.411884,-77069.207099
2394.886577,-5773.606348,3552.988522,-75843.454302
2394.889123,-5625.565159,-296.082377,-78141.740796
2394.891670,-5625.565159,888.247130,-78448.178995
2394.894216,0.000000,444.123565,-79214.274493
2394.896762,-1628.453072,1924.535449,-78294.959896
2394.899309,-3256.906145,1924.535449,-78294.959896
2394.901855,-10658.965565,2812.782580,-78754.617194
2394.904401,-2664.741391,2516.700203,-76915.987999
2394.906948,-5921.647536,-2072.576638,-78754.617194
2394.909494,-2960.823768,1332.370696,-77375.645298
2394.912040,1332.370696,1480.411884,-77375.645298
2394.914587,-5329.482782,-1036.288319,-77682.083497
2394.917133,-296.082377,4737.318029,-77835.302597
2394.919679,-2960.823768,-1628.453072,-80593.246390
2394.922226,5921.647536,4145.153275,-78294.959896
2394.924772,888.247130,-2220.617826,-77682.083497
2394.927318,2664.741391,1480.411884,-77069.207099
2394.929865,4589.276840,1036.288319,-76456.330700
2394.932411,5477.523971,0.000000,-78907.836294
2394.934958,7254.018232,4885.359217,-77375.645298
2394.937504,4293.194464,-740.205942,-80746.465489
2394.940050,2516.700203,1924.535449,-76915.987999
2394.942597,3108.864956,592.164754,-78294.959896
2394.945143,-740.205942,0.000000,-77069.207099
2394.947689,7994.224174,1332.370696,-77988.521696
2394.950163,1184.329507,3108.864956,-77988.521696
2394.952637,3997.112087,1184.329507,-79061.055394
2394.955110,-3108.864956,4145.153275,-77682.083497
2394.957584,-4737.318029,1776.494261,-78448.178995
2394.960057,4885.359217,1184.329507,-76915.987999
2394.962531,1924.535449,296.082377,-78141.740796
2394.965005,3404.947333,444.123565,-78294.959896
2394.967478,-888.247130,1480.411884,-77988.521696
2394.969952,5625.565159,1332.370696,-78754.617194
2394.972426,2664.741391,296.082377,-77682.083497
2394.974899,6661.853478,3404.947333,-77375.645298
2394.977373,4441.235652,-296.082377,-77835.302597
2394.979847,6365.771101,2368.659014,-75690.235202
2394.982320,1628.453072,1036.288319,-78294.959896
2394.984794,3256.906145,1332.370696,-79061.055394
2394.987267,5181.441594,2368.659014,-77988.521696
2394.989741,5773.606348,-592.164754,-79214.274493
2394.992215,6217.729913,1924.535449,-77375.645298
2394.994688,4293.194464,2812.782580,-77375.645298
2394.997162,3701.029710,-3997.112087,-79673.931792
2394.999636,-2516.700203,10214.842000,-75690.235202
2395.002109,3701.029710,-4441.235652,-80593.246390
2395.004583,-5921.647536,4885.359217,-77375.645298
2395.007056,-6809.894666,3552.988522,-76762.768900
2395.009530,-3552.988522,1036.288319,-78907.836294
2395.012004,5773.606348,-1332.370696,-77375.645298
2395.014477,-4441.235652,1332.370696,-79980.369991
2395.016951,-2516.700203,3552.988522,-76456.330700
2395.019425,-6513.812290,1480.411884,-76303.111601
2395.021898,-8882.471304,592.164754,-79214.274493
2395.024372,0.000000,4737.318029,-76609.549800
2395.026846,-5033.400406,-4145.153275,-80593.246390
2395.029319,1332.370696,3997.112087,-76303.111601
2395.031793,-3256.906145,2812.782580,-77222.426198
2395.034266,-1184.329507,1628.453072,-79061.055394
2395.036740,-7105.977043,2960.823768,-77528.864398
2395.039214,-5329.482782,592.164754,-79827.150892
2395.041687,-8586.388927,3404.947333,-77069.207099
2395.044161,-1036.288319,-1776.494261,-79520.712692
2395.046635,740.205942,3108.864956,-75843.454302
2395.049137,296.082377,-148.041188,-79061.055394
2395.051640,-1628.453072,1776.494261,-78907.836294
2395.054142,-2516.700203,-1332.370696,-80440.027290
2395.056645,-4885.359217,4293.194464,-76915.987999
2395.059147,-3256.906145,-148.041188,-78141.740796
2395.061649,-9622.677246,1480.411884,-76456.330700
2395.064152,-2812.782580,3108.864956,-77835.302597
2395.066654,-1776.494261,-592.164754,-77528.864398
2395.069157,-1036.288319,-148.041188,-79061.055394
2395.071659,-2664.741391,3552.988522,-77528.864398
2395.074162,-10362.883188,-296.082377,-77988.521696
2395.076664,-888.247130,2368.659014,-77835.302597
2395.079167,-4145.153275,296.082377,-78754.617194
2395.081669,5033.400406,2960.823768,-76762.768900
2395.084172,-4145.153275,1776.494261,-77835.302597
2395.086674,2664.741391,3849.070898,-76762.768900
2395.089177,-3997.112087,-296.082377,-78294.959896
2395.091679,5033.400406,3997.112087,-79061.055394
2395.094182,888.247130,592.164754,-77682.083497
2395.096684,-296.082377,1184.329507,-78754.617194
2395.099187,9622.677246,5033.400406,-75537.016103
2395.101689,1332.370696,-3552.988522,-79980.369991
2395.104191,3849.070898,1480.411884,-77835.302597
2395.106694,5181.441594,2960.823768,-77222.426198
2395.109196,1628.453072,-1036.288319,-79827.150892
2395.111699,3404.947333,740.205942,-78754.617194
2395.114201,3108.864956,3108.864956,-76915.987999
2395.116704,5921.647536,148.041188,-78448.178995
2395.119206,2220.617826,1628.453072,-77375.645298
2395.121709,1184.329507,1480.411884,-78141.740796
2395.124211,4145.153275,1480.411884,-78754.617194
2395.126714,4885.359217,3701.029710,-77375.645298
2395.129216,4737.318029,-2368.659014,-80286.808190
2395.131719,1924.535449,3404.947333,-76456.330700
2395.134221,1036.288319,148.041188,-78294.959896
2395.136724,-3108.864956,-444.123565,-78141.740796
2395.139226,7254.018232,3108.864956,-76762.768900
2395.141729,148.041188,1184.329507,-78601.398095
2395.144231,5921.647536,296.082377,-79214.274493
2395.146733,9178.553681,4145.153275,-77069.207099
2395.149186,4145.153275,-740.205942,-80593.246390
2395.151639,4885.359217,3404.947333,-77069.207099
2395.154091,444.123565,1628.453072,-78448.178995
2395.156544,2368.659014,-444.123565,-77222.426198
2395.158996,6069.688724,3108.864956,-77835.302597
2395.161449,7846.182985,-1924.535449,-79980.369991
2395.163901,2516.700203,296.082377,-77988.521696
2395.166354,1036.288319,6809.894666,-76456.330700
2395.168806,2220.617826,-2368.659014,-79827.150892
2395.171259,2368.659014,1924.535449,-78141.740796
2395.173711,-3108.864956,-148.041188,-77682.083497
2395.176164,-2812.782580,888.247130,-76609.549800
2395.178617,-8882.471304,4441.235652,-78141.740796
2395.181069,9178.553681,-3108.864956,-78907.836294
2395.183522,-2960.823768,1332.370696,-79367.493593
2395.185974,-3849.070898,3256.906145,-79367.493593
2395.188427,-8882.471304,-2812.782580,-79673.931792
2395.190879,-1184.329507,2812.782580,-76456.330700
2395.193332,-6217.729913,2368.659014,-77375.645298
2395.195784,-592.164754,-2812.782580,-79520.712692
2395.198237,-1924.535449,2220.617826,-77835.302597
2395.200689,-1036.288319,1924.535449,-78294.959896
2395.203142,-3108.864956,2368.659014,-78141.740796
2395.205595,-5477.523971,888.247130,-79061.055394
2395.208047,-2960.823768,2072.576638,-77528.864398
2395.210500,-3108.864956,2516.700203,-78294.959896
2395.212952,-2072.576638,-1480.411884,-77988.521696
2395.215405,-296.082377,2516.700203,-76456.330700
2395.217857,-5181.441594,2516.700203,-78907.836294
2395.220310,-4589.276840,-1924.535449,-80899.684589
2395.222762,1332.370696,2516.700203,-77988.521696
2395.225215,-9326.594869,1332.370696,-77988.521696
2395.227668,-7105.977043,2664.741391,-77528.864398
2395.230120,-5625.565159,3849.070898,-76456.330700
2395.232573,-3701.029710,740.205942,-78601.398095
2395.235025,-296.082377,888.247130,-76609.549800
2395.237478,-6809.894666,592.164754,-80440.027290
2395.239930,-5773.606348,1628.453072,-77069.207099
2395.242383,-3849.070898,888.247130,-77835.302597
2395.244835,-5329.482782,3108.864956,-77988.521696
2395.247323,592.164754,1628.453072,-77835.302597
2395.249811,-3552.988522,1628.453072,-76915.987999
2395.252299,-2516.700203,2220.617826,-77988.521696
2395.254787,-1332.370696,-1628.453072,-77375.645298
2395.257275,5477.523971,4589.276840,-78141.740796
2395.259763,296.082377,-1924.535449,-79673.931792
2395.262251,4737.318029,1924.535449,-76762.768900
2395.264739,1924.535449,740.205942,-78907.836294
2395.267227,6661.853478,740.205942,-78448.178995
2395.269714,5033.400406,4737.318029,-75843.454302
2395.272202,3108.864956,-1036.288319,-80593.246390
2395.274690,1776.494261,3108.864956,-75690.235202
2395.277178,-592.164754,-1776.494261,-79214.274493
2395.279666,6217.729913,3108.864956,-77069.207099
2395.282154,6217.729913,-148.041188,-76149.892501
2395.284642,2368.659014,592.164754,-80286.808190
2395.287130,5921.647536,2664.741391,-76762.768900
2395.289618,6513.812290,1628.453072,-78907.836294
2395.292106,-2812.782580,1924.535449,-77682.083497
2395.294593,1480.411884,-1628.453072,-77682.083497
2395.297081,740.205942,1776.494261,-77835.302597
2395.299569,4885.359217,1776.494261,-77988.521696
2395.302057,1628.453072,888.247130,-77988.521696
2395.304545,6513.812290,740.205942,-79367.493593
2395.307033,8882.471304,5329.482782,-77222.426198
2395.309521,3404.947333,-1480.411884,-79980.369991
2395.312009,4737.318029,592.164754,-77375.645298
2395.314497,2812.782580,3256.906145,-76149.892501
2395.316985,1480.411884,740.205942,-79367.493593
2395.319473,3552.988522,-888.247130,-78907.836294
2395.321960,10807.006753,3256.906145,-78141.740796
2395.324448,6217.729913,1628.453072,-79980.369991
2395.326936,4589.276840,-148.041188,-77835.302597
2395.329424,-1332.370696,3997.112087,-77528.864398
2395.331912,296.082377,-1184.329507,-78141.740796
2395.334400,-2812.782580,2664.741391,-77069.207099
2395.336888,-4589.276840,-5773.606348,-80593.246390
2395.339376,-148.041188,8438.347739,-75077.358804
2395.341864,-5921.647536,0.000000,-80133.589091
2395.344352,5329.482782,592.164754,-78141.740796
2395.346866,-1036.288319,3404.947333,-77069.207099
2395.349382,-6957.935855,-1332.370696,-78907.836294
2395.351898,-8586.388927,296.082377,-78294.959896
2395.354413,-3108.864956,3552.988522,-77375.645298
2395.356929,-5477.523971,-1480.411884,-80899.684589
2395.359445,-888.247130,3108.864956,-77069.207099
2395.361961,-1924.535449,-888.247130,-79214.274493
2395.364477,-148.041188,740.205942,-78448.178995
2395.366993,-8290.306550,2960.823768,-75383.797003
2395.369509,-5773.606348,-1480.411884,-79980.369991
2395.372024,1332.370696,2812.782580,-76915.987999
2395.374540,-1776.494261,740.205942,-78141.740796
2395.377056,-2960.823768,1036.288319,-78141.740796
2395.379572,1776.494261,-148.041188,-77222.426198
2395.382088,-740.205942,2516.700203,-76149.892501
2395.384604,-8586.388927,1036.288319,-79520.712692
2395.387120,-7550.100608,592.164754,-77988.521696
2395.389636,-4589.276840,2220.617826,-78294.959896
2395.392151,-3552.988522,2368.659014,-77988.521696
2395.394667,-5329.482782,-740.205942,-79061.055394
2395.397183,-5033.400406,3552.988522,-77528.864398
2395.399699,-4145.153275,1332.370696,-77528.864398
2395.402215,-5773.606348,2072.576638,-77222.426198
2395.404731,-5033.400406,0.000000,-80286.808190
2395.407247,-444.123565,2220.617826,-78601.398095
2395.409762,-6217.729913,1776.494261,-77528.864398
2395.412278,-1924.535449,1184.329507,-78448.178995
2395.414794,1332.370696,888.247130,-77528.864398
2395.417310,1480.411884,-1776.494261,-80133.589091
2395.419826,5329.482782,3997.112087,-76456.330700
2395.422342,-1332.370696,444.123565,-78294.959896
2395.424858,5921.647536,1776.494261,-77375.645298
2395.427373,3849.070898,1036.288319,-77375.645298
2395.429889,3701.029710,-592.164754,-79520.712692
2395.432405,2664.741391,4885.359217,-76915.987999
2395.434921,3404.947333,-1924.535449,-78601.398095
2395.437437,5477.523971,2516.700203,-77682.083497
2395.439953,6365.771101,3701.029710,-76456.330700
2395.442469,5477.523971,-2516.700203,-79673.931792
2395.444985,5773.606348,2812.782580,-76915.987999
2395.447520,3256.906145,1036.288319,-78448.178995
2395.450056,2812.782580,-148.041188,-79520.712692
2395.452592,3849.070898,2664.741391,-77988.521696
2395.455127,1184.329507,1184.329507,-79214.274493
2395.457663,-296.082377,1184.329507,-77375.645298
2395.460199,740.205942,-296.082377,-77222.426198
2395.462735,4885.359217,296.082377,-78754.617194
2395.465270,3997.112087,592.164754,-77988.521696
2395.467806,5921.647536,444.123565,-79367.493593
2395.470342,6661.853478,1480.411884,-79061.055394
2395.472878,6069.688724,3404.947333,-78294.959896
2395.475413,1036.288319,1628.453072,-78601.398095
2395.477949,1036.288319,3849.070898,-75996.673402
2395.480485,-888.247130,-1184.329507,-78294.959896
2395.483021,8142.265362,-1924.535449,-78294.959896
2395.485556,6809.894666,6217.729913,-75996.673402
2395.488092,5329.482782,-1924.535449,-80286.808190
2395.490628,-3256.906145,6217.729913,-77528.864398
2395.493164,1036.288319,-1332.370696,-80440.027290
2395.495699,0.000000,3404.947333,-76456.330700
2395.498235,-8586.388927,-592.164754,-77835.302597
2395.500771,444.123565,3108.864956,-77835.302597
2395.503307,148.041188,-1184.329507,-77682.083497
2395.505842,-2812.782580,-444.123565,-79827.150892
2395.508378,-2516.700203,3108.864956,-79980.369991
2395.510914,-6069.688724,-592.164754,-77069.207099
2395.513450,-8882.471304,2368.659014,-77835.302597
2395.515985,-3108.864956,2812.782580,-75843.454302
2395.518521,-3997.112087,-2516.700203,-79367.493593
2395.521057,444.123565,2072.576638,-76915.987999
2395.523593,-5773.606348,0.000000,-77988.521696
2395.526128,-5329.482782,2072.576638,-79367.493593
2395.528664,-3849.070898,1184.329507,-77835.302597
2395.531200,-5181.441594,2220.617826,-78294.959896
2395.533736,-5033.400406,1924.535449,-78294.959896
2395.536271,-1184.329507,1036.288319,-76762.768900
2395.538807,740.205942,592.164754,-77988.521696
2395.541343,-3108.864956,148.041188,-78448.178995
2395.543879,-5033.400406,2516.700203,-77835.302597
2395.546414,-8586.388927,0.000000,-78907.836294
2395.548966,-6809.894666,3997.112087,-76762.768900
2395.551517,-4441.235652,444.123565,-79520.712692
2395.554069,-2220.617826,0.000000,-77988.521696
2395.556620,-3701.029710,3404.947333,-77528.864398
2395.559172,-5773.606348,1628.453072,-78448.178995
2395.561723,-4737.318029,1628.453072,-79367.493593
2395.564275,-3701.029710,444.123565,-79061.055394
2395.566826,-740.205942,2220.617826,-78754.617194
2395.569378,-5329.482782,-444.123565,-78754.617194
2395.571929,1184.329507,4589.276840,-76915.987999
2395.574481,-1036.288319,-1480.411884,-78294.959896
2395.577032,2368.659014,2368.659014,-78294.959896
2395.579584,6957.935855,1480.411884,-77988.521696
2395.582135,296.082377,592.164754,-77988.521696
2395.584687,2072.576638,2516.700203,-79061.055394
2395.587238,2960.823768,296.082377,-77222.426198
2395.589790,5181.441594,1776.494261,-76915.987999
2395.592341,3552.988522,3849.070898,-77682.083497
2395.594893,4441.235652,-888.247130,-78754.617194
2395.597444,2072.576638,1184.329507,-79061.055394
2395.599996,2368.659014,3849.070898,-77222.426198
2395.602547,3108.864956,1036.288319,-78448.178995
2395.605099,3256.906145,-1332.370696,-78141.740796
2395.607650,7550.100608,592.164754,-77835.302597
2395.610202,8438.347739,740.205942,-77988.521696
2395.612753,1036.288319,-444.123565,-79367.493593
2395.615305,-592.164754,1776.494261,-78294.959896
2395.617856,1332.370696,2072.576638,-78294.959896
2395.620408,-740.205942,-1332.370696,-79214.274493
2395.622959,6661.853478,3256.906145,-77988.521696
2395.625511,4737.318029,-2516.700203,-79980.369991
2395.628062,12139.377449,1776.494261,-77222.426198
2395.630614,5625.565159,4145.153275,-77682.083497
2395.633165,1480.411884,-148.041188,-80593.246390
2395.635716,2368.659014,5477.523971,-76149.892501
2395.638268,888.247130,-740.205942,-80440.027290
2395.640819,8438.347739,1332.370696,-77222.426198
2395.643371,4293.194464,4589.276840,-75537.016103
2395.645922,7402.059420,-3404.947333,-79673.931792
2395.648474,-1924.535449,6217.729913,-75996.673402
2395.650978,4441.235652,-3997.112087,-80133.589091
2395.653483,-10510.924376,5773.606348,-77375.645298
2395.655988,-2960.823768,-2220.617826,-79367.493593
2395.658492,3552.988522,5773.606348,-76149.892501
2395.660997,-4145.153275,-296.082377,-78141.740796
2395.663501,0.000000,296.082377,-77835.302597
2395.666006,-5625.565159,2960.823768,-77528.864398
2395.668510,-4145.153275,2220.617826,-78754.617194
2395.671015,-10510.924376,0.000000,-79214.274493
2395.673519,-3701.029710,2664.741391,-77988.521696
2395.676024,-3997.112087,740.205942,-78141.740796
2395.678529,-2220.617826,1036.288319,-77528.864398
2395.681033,-5181.441594,1924.535449,-78907.836294
2395.683538,296.082377,888.247130,-77835.302597
2395.686042,-6957.935855,1480.411884,-77375.645298
2395.688547,-13027.624579,2960.823768,-79214.274493
2395.691051,-296.082377,1480.411884,-77069.207099
2395.693556,740.205942,-296.082377,-78907.836294
2395.696060,296.082377,2220.617826,-77682.083497
2395.698565,-4441.235652,296.082377,-77528.864398
2395.701070,-8438.347739,1480.411884,-78448.178995
2395.703574,-7550.100608,3552.988522,-77988.521696
2395.706079,-3849.070898,2220.617826,-78907.836294
2395.708583,-8882.471304,-888.247130,-79980.369991
2395.711088,-3404.947333,3108.864956,-76303.111601
2395.713592,-8586.388927,1036.288319,-76762.768900
2395.716097,-6069.688724,2220.617826,-77528.864398
2395.718601,-3256.906145,740.205942,-77835.302597
2395.721106,-6069.688724,2220.617826,-79673.931792
2395.723611,1036.288319,3404.947333,-77682.083497
2395.726115,-4589.276840,-592.164754,-78601.398095
2395.728620,-4145.153275,3997.112087,-76762.768900
2395.731124,740.205942,-1480.411884,-77375.645298
2395.733629,4589.276840,3256.906145,-77682.083497
2395.736133,3997.112087,740.205942,-78907.836294
2395.738638,3849.070898,2664.741391,-77988.521696
2395.741142,592.164754,1924.535449,-78601.398095
2395.743647,3256.906145,-444.123565,-78907.836294
2395.746152,2072.576638,740.205942,-77375.645298
2395.748656,6513.812290,148.041188,-78601.398095
2395.751184,5181.441594,2072.576638,-76303.111601
2395.753712,1628.453072,0.000000,-79520.712692
2395.756240,5625.565159,3701.029710,-78448.178995
2395.758767,7550.100608,-592.164754,-78754.617194
2395.761295,4885.359217,2812.782580,-78448.178995
2395.763823,-2516.700203,296.082377,-78448.178995
2395.766351,-888.247130,296.082377,-77835.302597
2395.768879,2072.576638,2516.700203,-77069.207099
2395.771406,4145.153275,1628.453072,-79367.493593
2395.773934,-1480.411884,-1628.453072,-80133.589091
2395.776462,5329.482782,1480.411884,-78448.178995
2395.778990,10955.047942,2220.617826,-76609.549800
2395.781518,4293.194464,2516.700203,-76762.768900
2395.784046,2664.741391,1628.453072,-76456.330700
2395.786573,2220.617826,2220.617826,-77528.864398
2395.789101,1332.370696,-1184.329507,-79214.274493
2395.791629,7254.018232,5329.482782,-77069.207099
2395.794157,7402.059420,-3256.906145,-80593.246390
2395.796685,5033.400406,1924.535449,-76303.111601
2395.799212,4441.235652,2664.741391,-77375.645298
2395.801740,-2072.576638,592.164754,-78754.617194
2395.804268,-148.041188,2368.659014,-77375.645298
2395.806796,-1628.453072,-296.082377,-79980.369991
2395.809324,-6957.935855,888.247130,-77528.864398
2395.811852,-6069.688724,4145.153275,-77835.302597
2395.814379,5477.523971,-2516.700203,-78294.959896
2395.816907,-1332.370696,592.164754,-79367.493593
2395.819435,-1776.494261,2664.741391,-79673.931792
2395.821963,-8438.347739,0.000000,-77835.302597
2395.824491,-8734.430116,1924.535449,-78141.740796
2395.827018,-2664.741391,2960.823768,-76609.549800
2395.829546,-4589.276840,-592.164754,-79214.274493
2395.832074,592.164754,3108.864956,-77528.864398
2395.834602,-5477.523971,-888.247130,-79214.274493
2395.837130,444.123565,2812.782580,-79367.493593
2395.839658,-8290.306550,1628.453072,-78294.959896
2395.842185,-3701.029710,3849.070898,-77069.207099
2395.844713,-2812.782580,-592.164754,-79367.493593
2395.847241,5921.647536,1332.370696,-77069.207099
2395.849769,-3701.029710,888.247130,-77682.083497
2395.852315,-1776.494261,1480.411884,-78907.836294
2395.854861,-8438.347739,-1184.329507,-77988.521696
2395.857408,-5921.647536,1480.411884,-80286.808190
2395.859954,-6217.729913,1184.329507,-78141.740796
2395.862500,-3108.864956,1776.494261,-77988.521696
2395.865047,-7402.059420,-740.205942,-77988.521696
2395.867593,-148.041188,3701.029710,-75843.454302
2395.870139,-9030.512492,-740.205942,-79061.055394
2395.872686,740.205942,1924.535449,-78907.836294
2395.875232,-5625.565159,1776.494261,-78754.617194
2395.877778,-1776.494261,-296.082377,-79520.712692
2395.880325,-2072.576638,5181.441594,-76915.987999
2395.882871,444.123565,-1480.411884,-78294.959896
2395.885417,8734.430116,2220.617826,-76762.768900
2395.887963,0.000000,592.164754,-76456.330700
2395.890510,5329.482782,2072.576638,-78907.836294
2395.893056,444.123565,444.123565,-78448.178995
2395.895602,8142.265362,2368.659014,-78141.740796
2395.898149,5033.400406,2516.700203,-77682.083497
2395.900695,2220.617826,-148.041188,-79214.274493
2395.903241,4145.153275,1480.411884,-76149.892501
2395.905788,2368.659014,1480.411884,-78141.740796
2395.908334,6365.771101,4885.359217,-77682.083497
2395.910880,2812.782580,-148.041188,-79980.369991
2395.913427,3701.029710,3404.947333,-78907.836294
2395.915973,1480.411884,740.205942,-77988.521696
2395.918519,3849.070898,1776.494261,-76915.987999
2395.921066,1480.411884,740.205942,-78601.398095
2395.923612,592.164754,740.205942,-78448.178995
2395.926158,4441.235652,2664.741391,-77835.302597
2395.928704,6217.729913,2516.700203,-79061.055394
2395.931251,7994.224174,148.041188,-77375.645298
2395.933797,7846.182985,1036.288319,-77988.521696
2395.936343,1776.494261,2072.576638,-76915.987999
2395.938890,4589.276840,444.123565,-78448.178995
2395.941436,4145.153275,3256.906145,-79367.493593
2395.943982,5625.565159,740.205942,-79214.274493
2395.946529,5181.441594,1924.535449,-77988.521696
2395.949075,6217.729913,1036.288319,-76762.768900
2395.951621,-1332.370696,2812.782580,-77835.302597
2395.954181,4441.235652,-3108.864956,-79214.274493
2395.956740,-8290.306550,3108.864956,-77375.645298
2395.959299,-5921.647536,-296.082377,-80133.589091
2395.961859,-2072.576638,5329.482782,-76915.987999
2395.964418,296.082377,-2220.617826,-78294.959896
2395.966978,-6217.729913,1628.453072,-79061.055394
2395.969537,-888.247130,2960.823768,-77682.083497
2395.972096,-6217.729913,-1628.453072,-77528.864398
2395.974656,-8290.306550,1332.370696,-77528.864398
2395.977215,-6513.812290,1480.411884,-78601.398095
2395.979774,-5181.441594,2220.617826,-79520.712692
2395.982334,-740.205942,1776.494261,-78141.740796
2395.984893,-4145.153275,1776.494261,-78754.617194
2395.987453,-3108.864956,444.123565,-78754.617194
2395.990012,-740.205942,1776.494261,-77682.083497
2395.992571,-296.082377,-444.123565,-79673.931792
2395.995131,1332.370696,148.041188,-78601.398095
2395.997690,-1332.370696,1184.329507,-78907.836294
2396.000250,148.041188,3701.029710,-77069.207099
2396.002809,-7254.018232,296.082377,-77988.521696
2396.005368,-6513.812290,3404.947333,-77835.302597
2396.007928,-7994.224174,1332.370696,-77375.645298
2396.010487,-7846.182985,0.000000,-78754.617194
2396.013046,-4145.153275,1036.288319,-77375.645298
2396.015606,-3108.864956,3997.112087,-76456.330700
2396.018165,-6365.771101,-1628.453072,-79520.712692
2396.020725,-8438.347739,1036.288319,-77375.645298
2396.023284,296.082377,3997.112087,-78141.740796
2396.025843,-8586.388927,-1480.411884,-79214.274493
2396.028403,2072.576638,5477.523971,-76149.892501
2396.030962,-3108.864956,-2960.823768,-79827.150892
2396.033521,2664.741391,592.164754,-78448.178995
2396.036081,6069.688724,2220.617826,-77682.083497
2396.038640,296.082377,444.123565,-79980.369991
2396.041200,8438.347739,3108.864956,-77835.302597
2396.043759,1480.411884,-1776.494261,-79520.712692
2396.046318,7994.224174,1036.288319,-77835.302597
2396.048878,3256.906145,2516.700203,-77682.083497
2396.051437,7698.141797,-1036.288319,-79214.274493
2396.053997,4441.235652,1924.535449,-77528.864398
2396.056566,3404.947333,1480.411884,-77988.521696
2396.059136,3552.988522,1628.453072,-78754.617194
2396.061706,592.164754,148.041188,-79061.055394
2396.064276,5477.523971,2220.617826,-77375.645298
2396.066845,3849.070898,1924.535449,-78907.836294
2396.069415,-1184.329507,-296.082377,-77835.302597
2396.071985,888.247130,-4145.153275,-79673.931792
2396.074555,4145.153275,5181.441594,-75996.673402
2396.077125,5625.565159,-148.041188,-79214.274493
2396.079694,5921.647536,2368.659014,-78448.178995
2396.082264,9622.677246,2072.576638,-78141.740796
2396.084834,4145.153275,2664.741391,-77375.645298
2396.087404,1924.535449,0.000000,-78294.959896
2396.089974,1628.453072,2664.741391,-77528.864398
2396.092543,11103.089130,-592.164754,-78141.740796
2396.095113,6365.771101,2960.823768,-77528.864398
2396.097683,7105.977043,-296.082377,-79367.493593
2396.100253,-592.164754,3256.906145,-77835.302597
2396.102823,3997.112087,296.082377,-77222.426198
2396.105392,-7846.182985,1184.329507,-78448.178995
2396.107962,-4293.194464,444.123565,-78601.398095
2396.110532,-3701.029710,5033.400406,-77069.207099
2396.113102,1036.288319,-740.205942,-78754.617194
2396.115672,-4145.153275,-444.123565,-78601.398095
2396.118241,740.205942,2516.700203,-77682.083497
2396.120811,-3256.906145,2220.617826,-77222.426198
2396.123381,-8734.430116,-1924.535449,-79673.931792
2396.125951,-5181.441594,2812.782580,-77528.864398
2396.128521,-3849.070898,-1036.288319,-80286.808190
2396.131090,-2220.617826,2516.700203,-77682.083497
2396.133660,-888.247130,592.164754,-78141.740796
2396.136230,-6217.729913,1628.453072,-77835.302597
2396.138800,740.205942,1184.329507,-77988.521696
2396.141369,-2664.741391,-148.041188,-79214.274493
2396.143939,-2368.659014,2072.576638,-78448.178995
2396.146509,148.041188,2368.659014,-78448.178995
2396.149079,-1776.494261,1184.329507,-77835.302597
2396.151649,-7698.141797,1628.453072,-78448.178995
2396.154218,-8142.265362,2220.617826,-77222.426198
2396.156788,-7105.977043,-1924.535449,-80133.589091
2396.159315,-3701.029710,4441.235652,-77069.207099
2396.161842,-5921.647536,-444.123565,-79520.712692
2396.164369,-2072.576638,3256.906145,-78754.617194
2396.166896,-5625.565159,740.205942,-78448.178995
2396.169423,-5477.523971,2220.617826,-77682.083497
2396.171950,-4441.235652,2516.700203,-77069.207099
2396.174477,-3404.947333,-1628.453072,-78141.740796
2396.177003,-5181.441594,2960.823768,-77528.864398
2396.179530,-1036.288319,1776.494261,-78907.836294
2396.182057,7846.182985,-148.041188,-78601.398095
2396.184584,2516.700203,3108.864956,-76303.111601
2396.187111,5181.441594,296.082377,-78907.836294
2396.189638,-592.164754,-148.041188,-77375.645298
2396.192165,6365.771101,1184.329507,-79673.931792
2396.194692,5625.565159,2664.741391,-77835.302597
2396.197219,5773.606348,740.205942,-79061.055394
2396.199746,4145.153275,1036.288319,-79061.055394
2396.202272,1184.329507,2072.576638,-77528.864398
2396.204799,0.000000,1628.453072,-78294.959896
2396.207326,7402.059420,0.000000,-77988.521696
2396.209853,2220.617826,4441.235652,-76609.549800
2396.212380,2220.617826,-1036.288319,-80133.589091
2396.214907,4145.153275,1924.535449,-77682.083497
2396.217434,-2812.782580,2368.659014,-79520.712692
2396.219961,3256.906145,-148.041188,-78294.959896
2396.222488,4737.318029,2368.659014,-77528.864398
2396.225015,7994.224174,-1036.288319,-79520.712692
2396.227541,7698.141797,3108.864956,-77069.207099
2396.230068,3997.112087,1332.370696,-78448.178995
2396.232595,2072.576638,888.247130,-78448.178995
2396.235122,2664.741391,2664.741391,-77988.521696
2396.237649,6365.771101,2072.576638,-78754.617194
2396.240176,5329.482782,-1036.288319,-77682.083497
2396.242703,1924.535449,8734.430116,-75077.358804
2396.245230,2072.576638,-3256.906145,-79980.369991
2396.247757,-1776.494261,3108.864956,-76149.892501
2396.250284,-1184.329507,-888.247130,-80286.808190
2396.252811,-4441.235652,-740.205942,-76456.330700
2396.255337,-8734.430116,5329.482782,-77682.083497
2396.257864,4737.318029,-2812.782580,-79214.274493
2396.260409,-5477.523971,2220.617826,-77682.083497
2396.262953,-3997.112087,7698.141797,-77069.207099
2396.265498,-7698.141797,-6069.688724,-79980.369991
2396.268042,-1480.411884,6217.729913,-75077.358804
2396.270587,-8142.265362,-2072.576638,-78907.836294
2396.273131,-148.041188,296.082377,-77988.521696
2396.275676,-3256.906145,3997.112087,-78294.959896
2396.278220,-3552.988522,-1332.370696,-80440.027290
2396.280765,-8734.430116,4737.318029,-76456.330700
2396.283309,-6661.853478,0.000000,-80593.246390
2396.285853,1036.288319,2812.782580,-75383.797003
2396.288398,-2960.823768,2072.576638,-77069.207099
2396.290942,-1924.535449,-740.205942,-79980.369991
2396.293487,-5181.441594,2664.741391,-77069.207099
2396.296031,-11843.295072,592.164754,-79214.274493
2396.298576,-9918.759623,1924.535449,-77222.426198
2396.301120,-11547.212695,1776.494261,-77682.083497
2396.303665,-4589.276840,2072.576638,-78907.836294
2396.306209,-3552.988522,740.205942,-77222.426198
2396.308754,-3552.988522,444.123565,-79061.055394
2396.311298,-5921.647536,1924.535449,-77682.083497
2396.313843,-6809.894666,2220.617826,-77069.207099
2396.316387,-3552.988522,2812.782580,-78141.740796
2396.318931,444.123565,1332.370696,-77682.083497
2396.321476,2812.782580,-444.123565,-77988.521696
2396.324020,6957.935855,2812.782580,-77528.864398
2396.326565,3849.070898,-444.123565,-78141.740796
2396.329109,3404.947333,2072.576638,-77835.302597
2396.331654,3108.864956,592.164754,-77375.645298
2396.334198,6365.771101,1628.453072,-76762.768900
2396.336743,3552.988522,1332.370696,-79061.055394
2396.339287,7254.018232,4293.194464,-77835.302597
2396.341845,3849.070898,1480.411884,-77835.302597
2396.344403,2368.659014,888.247130,-78141.740796
2396.346960,2368.659014,1036.288319,-76915.987999
2396.349518,-444.123565,1332.370696,-78754.617194
2396.352075,6217.729913,740.205942,-77835.302597
2396.354632,2664.741391,1924.535449,-78448.178995
2396.357190,1036.288319,296.082377,-79214.274493
2396.359747,-296.082377,1776.494261,-78141.740796
2396.362305,3108.864956,1480.411884,-78294.959896
2396.364862,8290.306550,2516.700203,-77069.207099
2396.367419,8734.430116,148.041188,-78141.740796
2396.369977,6661.853478,2220.617826,-78294.959896
2396.372534,3108.864956,-444.123565,-78601.398095
2396.375092,5181.441594,4293.194464,-77375.645298
2396.377649,7994.224174,-1924.535449,-80746.465489
2396.380206,7254.018232,3256.906145,-77069.207099
2396.382764,6957.935855,-888.247130,-78294.959896
2396.385321,-1036.288319,3701.029710,-77835.302597
2396.387879,3849.070898,148.041188,-77988.521696
2396.390436,-1776.494261,296.082377,-79061.055394
2396.392993,-2960.823768,1184.329507,-77528.864398
2396.395551,-1036.288319,1332.370696,-77988.521696
2396.398108,444.123565,-2368.659014,-80286.808190
2396.400666,-2960.823768,3849.070898,-77375.645298
2396.403223,-1480.411884,0.000000,-80133.589091
2396.405781,-7698.141797,4589.276840,-76149.892501
2396.408338,-9030.512492,-3108.864956,-80593.246390
2396.410895,-6513.812290,4589.276840,-75843.454302
2396.413453,-6365.771101,-1036.288319,-79214.274493
2396.416010,592.164754,740.205942,-77222.426198
2396.418568,-6069.688724,2960.823768,-77835.302597
2396.421125,-4885.359217,592.164754,-80286.808190
2396.423682,-6069.688724,2664.741391,-78294.959896
2396.426240,-592.164754,888.247130,-78294.959896
2396.428797,-2220.617826,1776.494261,-77528.864398
2396.431355,-1332.370696,-444.123565,-78294.959896
2396.433912,-3108.864956,2368.659014,-77222.426198
2396.436469,-8438.347739,740.205942,-77988.521696
2396.439027,-11547.212695,592.164754,-78754.617194
2396.441584,-10510.924376,888.247130,-79673.931792
2396.444152,-4589.276840,3849.070898,-77682.083497
2396.446720,-1628.453072,296.082377,-78601.398095
2396.449288,-6809.894666,1332.370696,-77069.207099
2396.451856,-3404.947333,3108.864956,-77528.864398
2396.454424,-5921.647536,-1036.288319,-78754.617194
2396.456991,-2812.782580,3701.029710,-77988.521696
2396.459559,-2368.659014,592.164754,-78601.398095
2396.462127,4885.359217,-148.041188,-77375.645298
2396.464695,7254.018232,4293.194464,-77069.207099
2396.467263,3404.947333,-1332.370696,-78754.617194
2396.469831,2812.782580,2960.823768,-77375.645298
2396.472399,1628.453072,1628.453072,-78448.178995
2396.474967,7105.977043,-888.247130,-78601.398095
2396.477534,4441.235652,3108.864956,-77988.521696
2396.480102,6957.935855,1628.453072,-77988.521696
2396.482670,4145.153275,740.205942,-77528.864398
2396.485238,2812.782580,1776.494261,-78448.178995
2396.487806,5181.441594,3108.864956,-76915.987999
2396.490374,3552.988522,888.247130,-78754.617194
2396.492942,1480.411884,4441.235652,-75843.454302
2396.495509,5181.441594,444.123565,-78448.178995
2396.498077,-1480.411884,592.164754,-78448.178995
2396.500645,3849.070898,1036.288319,-77835.302597
2396.503213,4441.235652,0.000000,-77988.521696
2396.505781,7402.059420,3552.988522,-77222.426198
2396.508349,6069.688724,2072.576638,-78601.398095
2396.510917,8734.430116,2368.659014,-76456.330700
2396.513485,-1776.494261,2072.576638,-78907.836294
2396.516052,7698.141797,-1036.288319,-78294.959896
2396.518620,5921.647536,148.041188,-79061.055394
2396.521188,6365.771101,-1332.370696,-79214.274493
2396.523756,6661.853478,5329.482782,-76456.330700
2396.526324,-1036.288319,740.205942,-79673.931792
2396.528892,4737.318029,3108.864956,-77835.302597
2396.531460,-10214.842000,-2960.823768,-79520.712692
2396.534027,-1776.494261,2220.617826,-77528.864398
2396.536595,-11399.171507,3552.988522,-76915.987999
2396.539163,6809.894666,-2960.823768,-78294.959896
2396.541731,-3701.029710,2516.700203,-77375.645298
2396.544299,-1924.535449,2072.576638,-79520.712692
2396.546829,-8438.347739,1924.535449,-78141.740796
2396.549359,-8586.388927,296.082377,-78294.959896
2396.551889,-3997.112087,2516.700203,-77069.207099
2396.554419,-3256.906145,-1332.370696,-78448.178995
2396.556948,296.082377,444.123565,-77375.645298
2396.559478,-3997.112087,1628.453072,-78754.617194
2396.562008,148.041188,3256.906145,-78601.398095
2396.564538,-5329.482782,-740.205942,-79520.712692
2396.567068,1480.411884,2960.823768,-77528.864398
2396.569598,-2220.617826,2220.617826,-76762.768900
2396.572128,-4441.235652,0.000000,-76303.111601
2396.574658,-5477.523971,1184.329507,-78141.740796
2396.577188,-5773.606348,1480.411884,-77835.302597
2396.579718,-12879.583391,740.205942,-78754.617194
2396.582247,-5477.523971,2368.659014,-78601.398095
2396.584777,-2220.617826,888.247130,-76762.768900
2396.587307,-1480.411884,-148.041188,-77835.302597
2396.589837,-2072.576638,3108.864956,-77375.645298
2396.592367,-6069.688724,-740.205942,-78601.398095
2396.594897,-3552.988522,3404.947333,-78141.740796
2396.597427,-2664.741391,1480.411884,-78754.617194
2396.599957,4293.194464,1184.329507,-79214.274493
2396.602487,9770.718434,1480.411884,-77069.207099
2396.605017,296.082377,296.082377,-78141.740796
2396.607546,4589.276840,2368.659014,-78294.959896
2396.610076,888.247130,1036.288319,-77528.864398
2396.612606,6365.771101,0.000000,-79367.493593
2396.615136,5033.400406,3404.947333,-77375.645298
2396.617666,7402.059420,1332.370696,-78448.178995
2396.620196,592.164754,0.000000,-79061.055394
2396.622726,6365.771101,3404.947333,-76915.987999
2396.625256,1332.370696,296.082377,-78601.398095
2396.627786,5477.523971,296.082377,-77988.521696
2396.630316,7550.100608,3701.029710,-75996.673402
2396.632845,3997.112087,148.041188,-78601.398095
2396.635375,1036.288319,592.164754,-77375.645298
2396.637905,1332.370696,2516.700203,-77835.302597
2396.640435,5773.606348,0.000000,-78141.740796
2396.642965,12139.377449,296.082377,-78141.740796
2396.645495,7550.100608,1776.494261,-77528.864398
2396.648041,5921.647536,1332.370696,-78448.178995
2396.650588,3404.947333,296.082377,-77528.864398
2396.653134,7846.182985,2368.659014,-78448.178995
2396.655680,3552.988522,-1480.411884,-78754.617194
2396.658226,9030.512492,2516.700203,-77682.083497
2396.660773,1036.288319,1036.288319,-78294.959896
2396.663319,5477.523971,2812.782580,-76149.892501
2396.665865,-3701.029710,1924.535449,-79214.274493
2396.668412,-4737.318029,-1776.494261,-79214.274493
2396.670958,-8142.265362,7105.977043,-76456.330700
2396.673504,3256.906145,-4589.276840,-79367.493593
2396.676050,-4885.359217,3997.112087,-76303.111601
2396.678597,-740.205942,2072.576638,-79214.274493
2396.681143,-1628.453072,1628.453072,-77528.864398
2396.683689,-9622.677246,444.123565,-79061.055394
2396.686236,-10214.842000,3552.988522,-77835.302597
2396.688782,-6217.729913,-888.247130,-78294.959896
2396.691328,1924.535449,2664.741391,-76149.892501
2396.693875,-1480.411884,1480.411884,-77375.645298
2396.696421,-5181.441594,0.000000,-79520.712692
2396.698967,-2664.741391,1924.535449,-78754.617194
2396.701513,2220.617826,2072.576638,-79061.055394
2396.704060,-3404.947333,2368.659014,-78141.740796
2396.706606,-3552.988522,1776.494261,-77528.864398
2396.709152,-8142.265362,444.123565,-76915.987999
2396.711699,-5329.482782,2664.741391,-76456.330700
2396.714245,-10066.800811,-592.164754,-78907.836294
2396.716791,-1628.453072,296.082377,-79673.931792
2396.719338,-2220.617826,2516.700203,-75690.235202
2396.721884,-3552.988522,1924.535449,-78448.178995
2396.724430,-1776.494261,3256.906145,-77835.302597
2396.726976,-7402.059420,-296.082377,-77835.302597
2396.729523,-3552.988522,1776.494261,-78294.959896
2396.732069,2516.700203,740.205942,-77528.864398
2396.734615,-296.082377,444.123565,-79980.369991
2396.737162,13471.748144,2220.617826,-77069.207099
2396.739708,4737.318029,2220.617826,-77222.426198
2396.742254,2516.700203,-592.164754,-80593.246390
2396.744800,2220.617826,2516.700203,-77375.645298
2396.747347,6069.688724,148.041188,-78141.740796
2396.749906,3256.906145,3404.947333,-76915.987999
2396.752466,7402.059420,-296.082377,-77069.207099
2396.755025,4885.359217,-444.123565,-79214.274493
2396.757585,5329.482782,2664.741391,-77682.083497
2396.760144,1332.370696,1036.288319,-79061.055394
2396.762703,-3552.988522,592.164754,-80899.684589
2396.765263,4293.194464,3849.070898,-76149.892501
2396.767822,3701.029710,-148.041188,-78141.740796
2396.770382,-2368.659014,1776.494261,-78141.740796
2396.772941,4293.194464,1184.329507,-78754.617194
2396.775501,10510.924376,-888.247130,-79367.493593
2396.778060,7846.182985,2664.741391,-77835.302597
2396.780619,8438.347739,1036.288319,-78907.836294
2396.783179,6513.812290,4145.153275,-77069.207099
2396.785738,5921.647536,-148.041188,-77222.426198
2396.788298,6957.935855,2220.617826,-77988.521696
2396.790857,1924.535449,-444.123565,-78448.178995
2396.793417,4441.235652,1184.329507,-77835.302597
2396.795976,8438.347739,888.247130,-77222.426198
2396.798536,1184.329507,2072.576638,-77682.083497
2396.801095,-7254.018232,-3701.029710,-80133.589091
2396.803654,-1924.535449,5625.565159,-77682.083497
2396.806214,-6513.812290,0.000000,-79980.369991
2396.808773,1036.288319,1628.453072,-76762.768900
2396.811333,-3404.947333,888.247130,-77682.083497
2396.813892,-2368.659014,4441.235652,-75843.454302
2396.816452,-9030.512492,-1628.453072,-78754.617194
2396.819011,-8142.265362,888.247130,-79673.931792
2396.821571,-2220.617826,2072.576638,-78907.836294
2396.824130,-5477.523971,148.041188,-78754.617194
2396.826689,-2368.659014,296.082377,-77988.521696
2396.829249,-1628.453072,2664.741391,-76456.330700
2396.831808,-1332.370696,1628.453072,-77835.302597
2396.834368,-4589.276840,-888.247130,-79520.712692
2396.836927,1184.329507,1776.494261,-79367.493593
2396.839487,-4885.359217,-1480.411884,-78141.740796
2396.842046,-7994.224174,1332.370696,-76762.768900
2396.844606,-6957.935855,3108.864956,-77375.645298
2396.847165,-8586.388927,2072.576638,-78754.617194
2396.849724,-5181.441594,296.082377,-79214.274493
2396.852250,-7846.182985,1480.411884,-77375.645298
2396.854776,-1480.411884,4589.276840,-76762.768900
2396.857302,-4885.359217,2072.576638,-76915.987999
2396.859828,-3701.029710,1036.288319,-78141.740796
2396.862354,-4589.276840,2072.576638,-79673.931792
2396.864880,740.205942,-1480.411884,-79061.055394
2396.867406,2664.741391,2220.617826,-78754.617194
2396.869931,9178.553681,1480.411884,-77988.521696
2396.872457,5181.441594,2960.823768,-75690.235202
2396.874983,2368.659014,1036.288319,-78754.617194
2396.877509,4441.235652,740.205942,-77835.302597
2396.880035,6661.853478,-1184.329507,-79673.931792
2396.882561,4885.359217,2516.700203,-78294.959896
2396.885087,9474.636058,2960.823768,-77222.426198
2396.887613,2220.617826,444.123565,-78448.178995
2396.890139,5921.647536,3849.070898,-76609.549800
2396.892664,-1036.288319,444.123565,-78448.178995
2396.895190,8586.388927,444.123565,-79061.055394
2396.897716,1332.370696,2220.617826,-76762.768900
2396.900242,3997.112087,-444.123565,-78141.740796
2396.902768,592.164754,2516.700203,-77375.645298
2396.905294,5477.523971,1332.370696,-78907.836294
2396.907820,8734.430116,1480.411884,-79061.055394
2396.910346,6513.812290,592.164754,-78294.959896
2396.912872,6661.853478,2220.617826,-77222.426198
2396.915397,5921.647536,-148.041188,-77375.645298
2396.917923,5329.482782,1184.329507,-76762.768900
2396.920449,5329.482782,-148.041188,-79214.274493
2396.922975,9326.594869,1628.453072,-79520.712692
2396.925501,740.205942,1480.411884,-79520.712692
2396.928027,7698.141797,2220.617826,-76456.330700
2396.930553,-5625.565159,3256.906145,-77375.645298
2396.933079,-9178.553681,-2664.741391,-77988.521696
2396.935604,-7698.141797,5329.482782,-77069.207099
2396.938130,5625.565159,-3701.029710,-79520.712692
2396.940656,-2072.576638,1628.453072,-78448.178995
2396.943182,-4737.318029,2960.823768,-79061.055394
2396.945708,-5329.482782,3997.112087,-76149.892501
2396.948234,-8882.471304,-592.164754,-79061.055394
2396.950760,-5773.606348,2516.700203,-78601.398095
2396.953303,-5181.441594,592.164754,-77988.521696
2396.955846,-740.205942,3108.864956,-77375.645298
2396.958389,-9178.553681,592.164754,-77988.521696
2396.960932,-3552.988522,888.247130,-78601.398095
2396.963475,148.041188,1924.535449,-78907.836294
2396.966018,-2368.659014,1036.288319,-79061.055394
2396.968561,-2368.659014,1776.494261,-78754.617194
2396.971104,-11399.171507,296.082377,-78141.740796
2396.973647,-5625.565159,3552.988522,-76303.111601
2396.976190,-10362.883188,888.247130,-77375.645298
2396.978733,-3849.070898,444.123565,-78601.398095
2396.981276,-3849.070898,-296.082377,-77988.521696
2396.983819,-2072.576638,-1036.288319,-78754.617194
2396.986362,740.205942,2960.823768,-77222.426198
2396.988906,-8882.471304,0.000000,-78141.740796
2396.991449,-1776.494261,3849.070898,-76915.987999
2396.993992,-3404.947333,-1776.494261,-79061.055394
2396.996535,7698.141797,1036.288319,-78601.398095
2396.999078,9770.718434,1480.411884,-77528.864398
2397.001621,4589.276840,148.041188,-77528.864398
2397.004164,2812.782580,4293.194464,-77069.207099
2397.006707,0.000000,592.164754,-79520.712692
2397.009250,7402.059420,-888.247130,-79214.274493
2397.011793,3256.906145,1924.535449,-77988.521696
2397.014336,10658.965565,1628.453072,-77222.426198
2397.016879,2664.741391,-296.082377,-79367.493593
2397.019422,4885.359217,4885.359217,-77682.083497
2397.021965,-148.041188,-740.205942,-79214.274493
2397.024508,-3849.070898,3108.864956,-78754.617194
2397.027051,5625.565159,-148.041188,-77835.302597
2397.029594,2960.823768,2960.823768,-76149.892501
2397.032137,888.247130,-296.082377,-78601.398095
2397.034680,5773.606348,1776.494261,-77528.864398
2397.037223,8290.306550,1480.411884,-78754.617194
2397.039766,6957.935855,296.082377,-79061.055394
2397.042310,4441.235652,3404.947333,-76915.987999
2397.044853,4737.318029,444.123565,-78294.959896
2397.047396,2072.576638,1924.535449,-77528.864398
2397.049939,5773.606348,-148.041188,-78141.740796
2397.052482,4293.194464,1184.329507,-78907.836294
2397.054997,8142.265362,296.082377,-77835.302597
2397.057512,-444.123565,888.247130,-77835.302597
2397.060027,-8882.471304,-2220.617826,-79827.150892
2397.062542,-4293.194464,5033.400406,-76303.111601
2397.065057,-11991.336260,888.247130,-80899.684589
2397.067572,3849.070898,1924.535449,-77682.083497
2397.070087,4885.359217,1184.329507,-75230.577904
2397.072602,-7846.182985,1480.411884,-77069.207099
2397.075117,-9918.759623,-296.082377,-77682.083497
2397.077632,-8586.388927,2812.782580,-79367.493593
2397.080147,-5329.482782,1036.288319,-80133.589091
2397.082662,296.082377,-296.082377,-77988.521696
2397.085177,-3256.906145,3997.112087,-77988.521696
2397.087692,2368.659014,1480.411884,-76456.330700
2397.090207,-6069.688724,1480.411884,-77682.083497
2397.092722,-1776.494261,0.000000,-79673.931792
2397.095237,-1332.370696,444.123565,-79673.931792
2397.097752,-3404.947333,2220.617826,-76762.768900
2397.100267,-8290.306550,-592.164754,-78448.178995
2397.102782,-6661.853478,3404.947333,-76149.892501
2397.105297,-8882.471304,2664.741391,-77988.521696
2397.107812,-4885.359217,-1184.329507,-78907.836294
2397.110328,-2812.782580,2072.576638,-78601.398095
2397.112843,444.123565,592.164754,-78754.617194
2397.115358,-4885.359217,1924.535449,-75230.577904
2397.117873,-5477.523971,888.247130,-78294.959896
2397.120388,-3108.864956,1332.370696,-78294.959896
2397.122903,5181.441594,-888.247130,-79520.712692
2397.125418,10214.842000,2072.576638,-78294.959896
2397.127933,4885.359217,296.082377,-76456.330700
2397.130448,5477.523971,3552.988522,-77069.207099
2397.132963,-2368.659014,592.164754,-79520.712692
2397.135478,8290.306550,-148.041188,-78754.617194
2397.137993,3552.988522,-1184.329507,-79673.931792
2397.140508,9326.594869,2960.823768,-77222.426198
2397.143023,3552.988522,-1628.453072,-77682.083497
2397.145538,888.247130,2960.823768,-76915.987999
2397.148053,2960.823768,4293.194464,-77069.207099
2397.150568,4441.235652,-2664.741391,-81665.780087
2397.153083,740.205942,2516.700203,-77375.645298
2397.155618,3108.864956,-1480.411884,-77069.207099
2397.158153,2664.741391,4293.194464,-74924.139704
2397.160688,3849.070898,888.247130,-78754.617194
2397.163222,8438.347739,2220.617826,-79367.493593
2397.165757,12287.418637,740.205942,-79520.712692
2397.168292,7254.018232,2664.741391,-77988.521696
2397.170827,5773.606348,1184.329507,-77375.645298
2397.173362,592.164754,2664.741391,-75537.016103
2397.175897,8734.430116,0.000000,-78448.178995
2397.178432,1184.329507,1480.411884,-79520.712692
2397.180966,6809.894666,444.123565,-79520.712692
2397.183501,-2220.617826,2960.823768,-78294.959896
2397.186036,-9178.553681,296.082377,-77988.521696
2397.188571,-6661.853478,4293.194464,-77528.864398
2397.191106,-6661.853478,-592.164754,-79061.055394
2397.193641,2368.659014,592.164754,-77528.864398
2397.196176,888.247130,-1036.288319,-77988.521696
2397.198710,-6365.771101,3997.112087,-76762.768900
2397.201245,-9918.759623,1332.370696,-77988.521696
2397.203780,-8586.388927,4737.318029,-77988.521696
2397.206315,-3849.070898,148.041188,-79367.493593
2397.208850,296.082377,-1184.329507,-78294.959896
2397.211385,1776.494261,3256.906145,-76149.892501
2397.213919,-6661.853478,444.123565,-76762.768900
2397.216454,-2664.741391,1776.494261,-76303.111601
2397.218989,-3256.906145,3108.864956,-79367.493593
2397.221524,-3256.906145,-444.123565,-80440.027290
2397.224059,-5181.441594,444.123565,-79673.931792
2397.226594,-8882.471304,2072.576638,-77528.864398
2397.229129,-5773.606348,-296.082377,-77222.426198
2397.231663,-4589.276840,1480.411884,-76149.892501
2397.234198,-6661.853478,-296.082377,-79673.931792
2397.236733,-1628.453072,2072.576638,-77528.864398
2397.239268,-1924.535449,2072.576638,-78294.959896
2397.241803,-9178.553681,592.164754,-78448.178995
2397.244338,-3256.906145,4589.276840,-76762.768900
2397.246872,-592.164754,-2812.782580,-78601.398095
2397.249407,6809.894666,4441.235652,-76915.987999
2397.251942,10362.883188,-888.247130,-79061.055394
2397.254477,9622.677246,2664.741391,-76762.768900
2397.257028,-1924.535449,2812.782580,-77375.645298
2397.259580,3552.988522,740.205942,-79367.493593
2397.262131,5625.565159,2220.617826,-78754.617194
2397.264682,7550.100608,740.205942,-79367.493593
2397.267233,8734.430116,3108.864956,-75690.235202
2397.269785,-1776.494261,-148.041188,-78294.959896
2397.272336,5181.441594,3849.070898,-75537.016103
2397.274887,4737.318029,592.164754,-79520.712692
2397.277438,5477.523971,-1480.411884,-81052.903688
2397.279990,-1184.329507,1184.329507,-77682.083497
2397.282541,2220.617826,3108.864956,-76149.892501
2397.285092,6365.771101,2368.659014,-75690.235202
2397.287644,9030.512492,592.164754,-77528.864398
2397.290195,10214.842000,740.205942,-79673.931792
2397.292746,9326.594869,-1036.288319,-79827.150892
2397.295297,7698.141797,5921.647536,-78141.740796
2397.297849,3997.112087,-2664.741391,-79061.055394
2397.300400,3552.988522,1480.411884,-77222.426198
2397.302951,2664.741391,4145.153275,-78448.178995
2397.305502,8734.430116,-2664.741391,-77988.521696
2397.308054,-592.164754,2516.700203,-79673.931792
2397.310605,-8586.388927,-1480.411884,-80133.589091
2397.313156,-3552.988522,5329.482782,-76609.549800
2397.315708,-9178.553681,-1480.411884,-79827.150892
2397.318259,-2960.823768,148.041188,-78294.959896
2397.320810,2072.576638,1628.453072,-77988.521696
2397.323361,-3256.906145,-296.082377,-79520.712692
2397.325913,-9326.594869,3404.947333,-75843.454302
2397.328464,-8586.388927,1480.411884,-79367.493593
2397.331015,-7550.100608,2812.782580,-78448.178995
2397.333566,444.123565,-1480.411884,-78601.398095
2397.336118,888.247130,1332.370696,-78754.617194
2397.338669,-2516.700203,296.082377,-76303.111601
2397.341220,-888.247130,1628.453072,-76762.768900
2397.343772,-4441.235652,2368.659014,-79827.150892
2397.346323,-6365.771101,1332.370696,-79214.274493
2397.348874,-5773.606348,1924.535449,-78754.617194
2397.351425,-13323.706956,1036.288319,-77988.521696
2397.353977,-3404.947333,3108.864956,-75690.235202
2397.356528,-4589.276840,-2368.659014,-78601.398095
2397.359091,-1628.453072,740.205942,-77835.302597
2397.361655,-2516.700203,3701.029710,-78294.959896
2397.364218,-4589.276840,148.041188,-79673.931792
2397.366782,-6069.688724,5477.523971,-76762.768900
2397.369345,-3701.029710,296.082377,-77988.521696
2397.371908,1036.288319,-1924.535449,-77682.083497
2397.374472,14359.995275,3404.947333,-76609.549800
2397.377035,8734.430116,-2368.659014,-78294.959896
2397.379599,8142.265362,3701.029710,-77222.426198
2397.382162,-2516.700203,1924.535449,-78907.836294
2397.384726,6069.688724,2220.617826,-78907.836294
2397.387289,5921.647536,888.247130,-78907.836294
2397.389852,10955.047942,296.082377,-78141.740796
2397.392416,6069.688724,740.205942,-75843.454302
2397.394979,1924.535449,1628.453072,-77375.645298
2397.397543,9178.553681,1776.494261,-78141.740796
2397.400106,2072.576638,740.205942,-79367.493593
2397.402669,3849.070898,3701.029710,-79214.274493
2397.405233,1776.494261,0.000000,-78448.178995
2397.407796,2960.823768,2664.741391,-75996.673402
2397.410360,5329.482782,2516.700203,-76762.768900
2397.412923,9918.759623,148.041188,-78754.617194
2397.415487,9030.512492,2368.659014,-78601.398095
2397.418050,8882.471304,592.164754,-79673.931792
2397.420613,6957.935855,3404.947333,-77835.302597
2397.423177,3108.864956,2664.741391,-76915.987999
2397.425740,3701.029710,2516.700203,-78448.178995
2397.428304,5033.400406,-4441.235652,-77682.083497
2397.430867,1924.535449,6513.812290,-76303.111601
2397.433431,-7254.018232,-5773.606348,-81052.903688
2397.435994,-4441.235652,7846.182985,-75843.454302
2397.438557,-16728.654289,740.205942,-81206.122788
2397.441121,3256.906145,740.205942,-76762.768900
2397.443684,2220.617826,740.205942,-77222.426198
2397.446248,-1628.453072,740.205942,-77835.302597
2397.448811,-7254.018232,296.082377,-76762.768900
2397.451375,-11547.212695,4145.153275,-78754.617194
2397.453938,-4737.318029,148.041188,-80593.246390
2397.456501,-3849.070898,2072.576638,-77528.864398
2397.459065,1332.370696,296.082377,-79214.274493
2397.461638,-2368.659014,1628.453072,-75230.577904
2397.464212,740.205942,1628.453072,-76762.768900
2397.466785,-4885.359217,1628.453072,-79061.055394
2397.469358,-1776.494261,592.164754,-77528.864398
2397.471932,-8438.347739,148.041188,-80899.684589
2397.474505,-7105.977043,1184.329507,-79214.274493
2397.477079,-7402.059420,1480.411884,-76149.892501
2397.479652,-5329.482782,1332.370696,-77069.207099
2397.482225,-5033.400406,1036.288319,-76762.768900
2397.484799,296.082377,2368.659014,-77528.864398
2397.487372,-9918.759623,-1184.329507,-79980.369991
2397.489945,-4293.194464,6957.935855,-76456.330700
2397.492519,-4589.276840,296.082377,-79980.369991
2397.495092,1924.535449,-2368.659014,-78754.617194
2397.497666,12583.501014,3552.988522,-76456.330700
2397.500239,10066.800811,-2960.823768,-78754.617194
2397.502812,6809.894666,4589.276840,-75690.235202
2397.505386,-3108.864956,444.123565,-79827.150892
2397.507959,8142.265362,3404.947333,-79367.493593
2397.510533,1776.494261,-296.082377,-78754.617194
2397.513106,13323.706956,3701.029710,-77988.521696
2397.515679,4145.153275,-1924.535449,-76915.987999
2397.518253,1480.411884,2368.659014,-75843.454302
2397.520826,5181.441594,888.247130,-78754.617194
2397.523399,1480.411884,1332.370696,-80133.589091
2397.525973,-1184.329507,2368.659014,-79673.931792
2397.528546,-444.123565,-888.247130,-79367.493593
2397.531120,7402.059420,3701.029710,-73698.386908
2397.533693,7550.100608,-740.205942,-79367.493593
2397.536266,8734.430116,1776.494261,-77069.207099
2397.538840,9178.553681,0.000000,-77988.521696
2397.541413,4885.359217,3256.906145,-79673.931792
2397.543987,5329.482782,2664.741391,-77682.083497
2397.546560,2368.659014,296.082377,-79520.712692
2397.549133,5033.400406,3552.988522,-76303.111601
2397.551707,6809.894666,-2664.741391,-77835.302597
2397.554280,-2960.823768,1184.329507,-77988.521696
2397.556853,-12583.501014,3108.864956,-76915.987999
2397.559427,-10066.800811,4737.318029,-77835.302597
2397.562000,-4885.359217,592.164754,-79367.493593
2397.564542,-1776.494261,-1184.329507,-78907.836294
2397.567084,1776.494261,2664.741391,-76762.768900
2397.569625,-1332.370696,-296.082377,-76609.549800
2397.572167,-13619.789333,-1184.329507,-77375.645298
2397.574709,-9326.594869,5625.565159,-77988.521696
2397.577251,-6217.729913,296.082377,-80746.465489
2397.579792,2368.659014,1480.411884,-79061.055394
2397.582334,-4737.318029,3256.906145,-77835.302597
2397.584876,-1332.370696,-888.247130,-77222.426198
2397.587417,-2960.823768,1776.494261,-75996.673402
2397.589959,-7994.224174,-2072.576638,-80746.465489
2397.592501,-444.123565,1924.535449,-80286.808190
2397.595042,-11103.089130,3997.112087,-77835.302597
2397.597584,-14063.912898,2220.617826,-78907.836294
2397.600126,-4145.153275,2516.700203,-76303.111601
2397.602668,-1628.453072,-1036.288319,-77988.521696
2397.605209,296.082377,444.123565,-76915.987999
2397.607751,-5921.647536,2516.700203,-77375.645298
2397.610293,-4737.318029,2220.617826,-79673.931792
2397.612834,-7550.100608,2960.823768,-77988.521696
2397.615376,2220.617826,2812.782580,-78601.398095
2397.617918,10658.965565,-148.041188,-78448.178995
2397.620460,6957.935855,1332.370696,-75077.358804
2397.623001,6809.894666,1480.411884,-77988.521696
2397.625543,-1924.535449,-592.164754,-78601.398095
2397.628085,7550.100608,2812.782580,-79214.274493
2397.630626,3108.864956,444.123565,-80440.027290
2397.633168,9622.677246,2072.576638,-79367.493593
2397.635710,10066.800811,296.082377,-76762.768900
2397.638252,4885.359217,0.000000,-75383.797003
2397.640793,6365.771101,3701.029710,-75996.673402
2397.643335,-1184.329507,-1480.411884,-79980.369991
2397.645877,6365.771101,2220.617826,-79061.055394
2397.648418,1036.288319,2960.823768,-80133.589091
2397.650960,4441.235652,1332.370696,-78907.836294
2397.653502,9178.553681,-148.041188,-76149.892501
2397.656043,7994.224174,2960.823768,-76303.111601
2397.658585,8734.430116,-740.205942,-77682.083497
2397.661127,2220.617826,1776.494261,-78294.959896
2397.663669,5181.441594,1924.535449,-80593.246390
2397.666186,6957.935855,2664.741391,-77835.302597
2397.668703,4737.318029,1332.370696,-77835.302597
2397.671221,3701.029710,-4145.153275,-79673.931792
2397.673738,1628.453072,4441.235652,-75077.358804
2397.676256,-12435.459826,-4145.153275,-79520.712692
2397.678773,-9326.594869,10510.924376,-75537.016103
2397.681290,-7402.059420,-888.247130,-80593.246390
2397.683808,-5033.400406,1332.370696,-80133.589091
2397.686325,5477.523971,0.000000,-77375.645298
2397.688843,-2960.823768,-1184.329507,-76149.892501
2397.691360,-9030.512492,888.247130,-78141.740796
2397.693877,-7550.100608,2516.700203,-76303.111601
2397.696395,-6661.853478,2220.617826,-79980.369991
2397.698912,-4737.318029,1184.329507,-79980.369991
2397.701430,0.000000,3256.906145,-77375.645298
2397.703947,-4293.194464,1480.411884,-77528.864398
2397.706464,1036.288319,592.164754,-75077.358804
2397.708982,-5329.482782,-888.247130,-78141.740796
2397.711499,-6957.935855,-1036.288319,-79367.493593
2397.714016,-9326.594869,2960.823768,-78141.740796
2397.716534,-6217.729913,3997.112087,-78294.959896
2397.719051,-7105.977043,0.000000,-78141.740796
2397.721569,-3108.864956,1776.494261,-76915.987999
2397.724086,1036.288319,1184.329507,-76762.768900
2397.726603,-9030.512492,-2516.700203,-77375.645298
2397.729121,-3256.906145,3256.906145,-77988.521696
2397.731638,-3256.906145,2368.659014,-79061.055394
2397.734156,2516.700203,2368.659014,-79980.369991
2397.736673,10214.842000,444.123565,-79827.150892
2397.739190,7402.059420,3108.864956,-76303.111601
2397.741708,6661.853478,1924.535449,-76303.111601
2397.744225,-1628.453072,148.041188,-77682.083497
2397.746743,4737.318029,2220.617826,-77988.521696
2397.749260,4589.276840,-444.123565,-80746.465489
2397.751777,11991.336260,4145.153275,-78141.740796
2397.754295,1628.453072,-1480.411884,-79061.055394
2397.756812,9326.594869,592.164754,-76456.330700
2397.759330,0.000000,3256.906145,-75537.016103
2397.761847,444.123565,-1036.288319,-79827.150892
2397.764364,3849.070898,2072.576638,-77988.521696
2397.766901,2220.617826,1628.453072,-79214.274493
2397.769439,9918.759623,3108.864956,-77222.426198
2397.771976,7846.182985,0.000000,-78601.398095
2397.774513,11103.089130,1332.370696,-77069.207099
2397.777050,5921.647536,1480.411884,-77222.426198
2397.779587,5625.565159,1480.411884,-78448.178995
2397.782124,5773.606348,1776.494261,-77988.521696
2397.784661,2368.659014,4293.194464,-78141.740796
2397.787198,6365.771101,-1036.288319,-78907.836294
2397.789735,4737.318029,1332.370696,-77375.645298
2397.792272,-5773.606348,-1776.494261,-78448.178995
2397.794809,-4885.359217,2812.782580,-77528.864398
2397.797347,-6957.935855,-1924.535449,-80286.808190
2397.799884,-6957.935855,444.123565,-79827.150892
2397.802421,2220.617826,4293.194464,-78141.740796
2397.804958,296.082377,-1480.411884,-77988.521696
2397.807495,-10362.883188,444.123565,-77528.864398
2397.810032,-9474.636058,1480.411884,-76915.987999
2397.812569,-6809.894666,-444.123565,-78907.836294
2397.815106,-4145.153275,1776.494261,-79520.712692
2397.817643,6217.729913,3256.906145,-77835.302597
2397.820180,-5329.482782,1184.329507,-78754.617194
2397.822717,-3849.070898,3552.988522,-76303.111601
2397.825255,-4293.194464,1332.370696,-77222.426198
2397.827792,-4293.194464,0.000000,-76915.987999
2397.830329,-11547.212695,2072.576638,-79061.055394
2397.832866,-7105.977043,592.164754,-79980.369991
2397.835403,-6217.729913,1628.453072,-77375.645298
2397.837940,-6217.729913,3256.906145,-77988.521696
2397.840477,-1036.288319,3404.947333,-77069.207099
2397.843014,-7846.182985,-2072.576638,-78754.617194
2397.845551,-4737.318029,2072.576638,-77682.083497
2397.848104,-6069.688724,-296.082377,-78448.178995
2397.850657,12139.377449,3404.947333,-79061.055394
2397.853210,6661.853478,-148.041188,-79061.055394
2397.855763,10066.800811,740.205942,-77988.521696
2397.858316,1184.329507,1776.494261,-77069.207099
2397.860869,1036.288319,-296.082377,-77988.521696
2397.863422,1628.453072,740.205942,-77528.864398
2397.865975,5921.647536,2368.659014,-78294.959896
2397.868528,12583.501014,1776.494261,-77988.521696
2397.871081,444.123565,148.041188,-79214.274493
2397.873634,-2072.576638,2516.700203,-77682.083497
2397.876187,1924.535449,1332.370696,-77988.521696
2397.878740,592.164754,2220.617826,-77375.645298
2397.881293,2960.823768,444.123565,-79367.493593
2397.883846,7105.977043,1480.411884,-77835.302597
2397.886399,11991.336260,2072.576638,-77835.302597
2397.888952,12287.418637,1776.494261,-76762.768900
2397.891505,3404.947333,740.205942,-78601.398095
2397.894058,4885.359217,2516.700203,-77528.864398
2397.896611,2368.659014,592.164754,-77682.083497
2397.899164,4145.153275,4589.276840,-78294.959896
2397.901717,8438.347739,-296.082377,-79061.055394
2397.904270,3256.906145,-1480.411884,-78448.178995
2397.906823,-2664.741391,1480.411884,-76609.549800
2397.909376,-2960.823768,1036.288319,-77528.864398
2397.911929,-15840.407159,3997.112087,-78601.398095
2397.914482,1332.370696,0.000000,-78601.398095
2397.917035,-1480.411884,-444.123565,-78601.398095
2397.919588,-1184.329507,5625.565159,-78448.178995
2397.922141,-4293.194464,-2072.576638,-76149.892501
2397.924694,-10658.965565,2812.782580,-75690.235202
2397.927247,-6217.729913,148.041188,-77682.083497
2397.929800,-3701.029710,1036.288319,-78448.178995
2397.932353,-1924.535449,2664.741391,-79980.369991
2397.934906,-1776.494261,888.247130,-78754.617194
2397.937459,2960.823768,3849.070898,-75690.235202
2397.940012,-11251.130318,148.041188,-79214.274493
2397.942565,-3404.947333,592.164754,-77375.645298
2397.945118,-10362.883188,-1184.329507,-78754.617194
2397.947671,-7550.100608,1480.411884,-78754.617194
2397.950235,-6809.894666,2368.659014,-76456.330700
2397.952800,-3552.988522,148.041188,-81206.122788
2397.955365,2220.617826,3701.029710,-76303.111601
2397.957930,-11103.089130,-2072.576638,-79214.274493
2397.960495,-1036.288319,2072.576638,-77988.521696
2397.963059,-2664.741391,-2220.617826,-75996.673402
2397.965624,6217.729913,5033.400406,-78448.178995
2397.968189,9770.718434,592.164754,-78907.836294
2397.970754,9326.594869,1776.494261,-78448.178995
2397.973318,6217.729913,2516.700203,-77682.083497
2397.975883,-296.082377,1184.329507,-75843.454302
2397.978448,3997.112087,444.123565,-78294.959896
2397.981013,4145.153275,1184.329507,-77528.864398
2397.983577,9474.636058,2516.700203,-78601.398095
2397.986142,1628.453072,-740.205942,-81052.903688
2397.988707,6957.935855,1628.453072,-77528.864398
2397.991272,444.123565,1332.370696,-77988.521696
2397.993836,-740.205942,296.082377,-78601.398095
2397.996401,3256.906145,1332.370696,-76762.768900
2397.998966,6809.894666,1628.453072,-79061.055394
2398.001531,10807.006753,2664.741391,-77069.207099
2398.004096,11695.253884,0.000000,-79827.150892
2398.006660,9030.512492,2664.741391,-79367.493593
2398.009225,2812.782580,592.164754,-78754.617194
2398.011790,1924.535449,1332.370696,-76456.330700
2398.014355,3997.112087,2516.700203,-77988.521696
2398.016919,7105.977043,296.082377,-77222.426198
2398.019484,5625.565159,3108.864956,-78754.617194
2398.022049,-7846.182985,444.123565,-78601.398095
2398.024614,-5033.400406,1332.370696,-78141.740796
2398.027178,-16136.489536,2368.659014,-77375.645298
2398.029743,4145.153275,148.041188,-77528.864398
2398.032308,2072.576638,-888.247130,-78141.740796
2398.034873,-3256.906145,5477.523971,-77222.426198
2398.037438,-2664.741391,-1776.494261,-77682.083497
2398.040002,-10066.800811,3404.947333,-78141.740796
2398.042567,-7105.977043,0.000000,-80133.589091
2398.045132,-8290.306550,1480.411884,-78141.740796
2398.047697,296.082377,-296.082377,-79520.712692
2398.050261,-1184.329507,2220.617826,-75843.454302
2398.052836,-1628.453072,3552.988522,-77528.864398
2398.055410,-7402.059420,-1628.453072,-79520.712692
2398.057984,-7698.141797,148.041188,-76456.330700
2398.060558,-7698.141797,3108.864956,-77988.521696
2398.063132,-12435.459826,-740.205942,-78141.740796
2398.065707,-2960.823768,1184.329507,-76762.768900
2398.068281,-3997.112087,-148.041188,-79827.150892
2398.070855,-5033.400406,3108.864956,-76762.768900
2398.073429,-7846.182985,1628.453072,-77988.521696
2398.076004,-6069.688724,1480.411884,-78294.959896
2398.078578,-3108.864956,-148.041188,-78141.740796
2398.081152,13767.830521,5625.565159,-77682.083497
2398.083726,5477.523971,-2072.576638,-79980.369991
2398.086300,13471.748144,1776.494261,-77682.083497
2398.088875,-592.164754,2516.700203,-78294.959896
2398.091449,2368.659014,1184.329507,-77682.083497
2398.094023,3552.988522,1332.370696,-77988.521696
2398.096597,6957.935855,1036.288319,-78448.178995
2398.099171,9622.677246,3701.029710,-77222.426198
2398.101746,6217.729913,148.041188,-79061.055394
2398.104320,-3108.864956,592.164754,-77988.521696
2398.106894,3108.864956,1480.411884,-77069.207099
2398.109468,2072.576638,1184.329507,-78448.178995
2398.112043,888.247130,1924.535449,-78141.740796
2398.114617,12583.501014,1480.411884,-77835.302597
2398.117191,10955.047942,4589.276840,-75843.454302
2398.119765,3997.112087,-1628.453072,-79520.712692
2398.122339,1036.288319,-592.164754,-78141.740796
2398.124914,6069.688724,1480.411884,-77528.864398
2398.127488,5033.400406,3256.906145,-77222.426198
2398.130062,3552.988522,148.041188,-79061.055394
2398.132636,9474.636058,1628.453072,-79061.055394
2398.135210,-5921.647536,1776.494261,-77222.426198
2398.137785,-7254.018232,1036.288319,-77835.302597
2398.140359,-13323.706956,2664.741391,-77528.864398
2398.142933,-3256.906145,-1480.411884,-78448.178995
2398.145507,-3552.988522,1036.288319,-79061.055394
2398.148082,-888.247130,888.247130,-79980.369991
2398.150656,-1036.288319,3997.112087,-75843.454302
2398.153230,-14952.160028,1184.329507,-79367.493593
2398.155812,-4885.359217,1184.329507,-76762.768900
2398.158394,-7254.018232,-740.205942,-79367.493593
2398.160976,-2516.700203,592.164754,-78601.398095
2398.163558,444.123565,-444.123565,-77069.207099
2398.166140,2516.700203,1776.494261,-79367.493593
2398.168722,-4737.318029,4885.359217,-76609.549800
2398.171304,-9030.512492,-740.205942,-79520.712692
2398.173886,-7994.224174,2960.823768,-77375.645298
2398.176468,-8438.347739,3404.947333,-75690.235202
2398.179050,-1480.411884,-3256.906145,-79061.055394
2398.181632,-7254.018232,3256.906145,-77835.302597
2398.184214,1036.288319,3108.864956,-78448.178995
2398.186796,-10955.047942,-296.082377,-80133.589091
2398.189378,-5921.647536,4885.359217,-77835.302597
2398.191960,-740.205942,-2664.741391,-79214.274493
2398.194542,8438.347739,5181.441594,-76149.892501
2398.197124,8438.347739,0.000000,-77375.645298
2398.199706,9622.677246,0.000000,-78754.617194
2398.202288,3997.112087,3552.988522,-79214.274493
2398.204870,0.000000,888.247130,-78907.836294
2398.207452,2220.617826,2072.576638,-78754.617194
2398.210034,7994.224174,444.123565,-79061.055394
2398.212616,8438.347739,3997.112087,-75996.673402
2398.215198,7550.100608,888.247130,-78294.959896
2398.217780,-148.041188,296.082377,-77988.521696
2398.220362,3108.864956,2220.617826,-77375.645298
2398.222944,1480.411884,-592.164754,-80593.246390
2398.225526,4441.235652,1924.535449,-77375.645298
2398.228108,10807.006753,444.123565,-78907.836294
2398.230690,4293.194464,2664.741391,-77222.426198
2398.233272,10510.924376,3404.947333,-78601.398095
2398.235854,5477.523971,-2220.617826,-78601.398095
2398.238436,2960.823768,1628.453072,-77528.864398
2398.241018,4589.276840,2368.659014,-77222.426198
2398.243600,7402.059420,-148.041188,-79061.055394
2398.246182,9622.677246,740.205942,-77682.083497
2398.248764,-4441.235652,592.164754,-79061.055394
2398.251346,-6661.853478,2516.700203,-75996.673402
2398.253928,-15100.201217,2664.741391,-78141.740796
2398.256510,2220.617826,-1924.535449,-77375.645298
2398.259097,-3256.906145,1628.453072,-78601.398095
2398.261685,-2220.617826,3849.070898,-79520.712692
2398.264272,-7402.059420,296.082377,-77835.302597
2398.266859,-9770.718434,2960.823768,-77528.864398
2398.269446,-10510.924376,740.205942,-78448.178995
2398.272034,-3997.112087,296.082377,-76762.768900
2398.274621,0.000000,1036.288319,-79061.055394
2398.277208,-4441.235652,-444.123565,-77682.083497
2398.279795,3849.070898,4441.235652,-77682.083497
2398.282383,-10066.800811,-888.247130,-80286.808190
2398.284970,-10807.006753,2664.741391,-78294.959896
2398.287557,-6661.853478,-2960.823768,-80133.589091
2398.290145,-7254.018232,444.123565,-76149.892501
2398.292732,-4145.153275,2960.823768,-76456.330700
2398.295319,0.000000,592.164754,-78754.617194
2398.297906,-8290.306550,592.164754,-80286.808190
2398.300494,-9918.759623,3404.947333,-79367.493593
2398.303081,-1628.453072,740.205942,-79214.274493
2398.305668,3256.906145,-592.164754,-77988.521696
2398.308255,11843.295072,3701.029710,-76609.549800
2398.310843,3256.906145,-148.041188,-78294.959896
2398.313430,9326.594869,3849.070898,-78294.959896
2398.316017,-740.205942,3108.864956,-78754.617194
2398.318604,3552.988522,-1776.494261,-80286.808190
2398.321192,7105.977043,2072.576638,-77682.083497
2398.323779,8734.430116,444.123565,-77222.426198
2398.326366,3404.947333,3108.864956,-76149.892501
2398.328954,7402.059420,1480.411884,-78141.740796
2398.331541,888.247130,2072.576638,-79980.369991
2398.334128,888.247130,1332.370696,-79673.931792
2398.336715,3849.070898,1184.329507,-77528.864398
2398.339303,11103.089130,592.164754,-75996.673402
2398.341890,6809.894666,2664.741391,-76303.111601
2398.344477,11843.295072,3108.864956,-79673.931792
2398.347064,7402.059420,-4145.153275,-80286.808190
2398.349652,740.205942,5477.523971,-77069.207099
2398.352239,2516.700203,3404.947333,-77375.645298
2398.354826,4737.318029,-2664.741391,-79367.493593
2398.357413,12435.459826,2516.700203,-76456.330700
2398.360001,-1924.535449,444.123565,-77682.083497
2398.362587,-9178.553681,888.247130,-77988.521696
2398.365178,-12731.542202,3108.864956,-78601.398095
2398.367769,-6661.853478,1036.288319,-76609.549800
2398.370361,-3849.070898,592.164754,-78907.836294
2398.372952,740.205942,1628.453072,-77682.083497
2398.375543,-2960.823768,1036.288319,-76456.330700
2398.378134,-12435.459826,-592.164754,-79520.712692
2398.380726,-3701.029710,3701.029710,-75690.235202
2398.383317,-10066.800811,-1776.494261,-80133.589091
2398.385908,-148.041188,3849.070898,-76762.768900
2398.388500,2220.617826,1480.411884,-77375.645298
2398.391091,444.123565,1332.370696,-79520.712692
2398.393682,-6069.688724,2664.741391,-76762.768900
2398.396273,-11103.089130,2220.617826,-79827.150892
2398.398865,-8290.306550,-1036.288319,-79367.493593
2398.401456,-8290.306550,1480.411884,-76609.549800
2398.404047,-2220.617826,1332.370696,-77835.302597
2398.406638,-2664.741391,3701.029710,-77528.864398
2398.409230,-5477.523971,888.247130,-79367.493593
2398.411821,-9622.677246,0.000000,-80133.589091
2398.414412,-2516.700203,1776.494261,-77528.864398
2398.417004,2516.700203,-2072.576638,-78448.178995
2398.419595,12139.377449,3256.906145,-76149.892501
2398.422186,10955.047942,1480.411884,-77069.207099
2398.424777,5181.441594,2960.823768,-78907.836294
2398.427369,592.164754,2664.741391,-78907.836294
2398.429960,6365.771101,-1480.411884,-80440.027290
2398.432551,4145.153275,1924.535449,-77375.645298
2398.435143,9326.594869,2072.576638,-75996.673402
2398.437734,5773.606348,-1036.288319,-77988.521696
2398.440325,6365.771101,2812.782580,-76915.987999
2398.442916,-444.123565,1480.411884,-81052.903688
2398.445508,2220.617826,888.247130,-80899.684589
2398.448099,3701.029710,2368.659014,-77528.864398
2398.450690,11843.295072,740.205942,-76303.111601
2398.453281,13471.748144,1036.288319,-75690.235202
2398.455873,6661.853478,3404.947333,-78601.398095
2398.458464,5625.565159,148.041188,-78601.398095
2398.461055,1480.411884,1480.411884,-79980.369991
2398.463647,4885.359217,4441.235652,-78754.617194
2398.466241,10658.965565,-148.041188,-77528.864398
2398.468835,8290.306550,592.164754,-76149.892501
2398.471430,1036.288319,-296.082377,-77222.426198
2398.474024,-9770.718434,-1776.494261,-77528.864398
2398.476619,-15100.201217,3404.947333,-79367.493593
2398.479213,5477.523971,296.082377,-78448.178995
2398.481807,-1776.494261,444.123565,-77528.864398
2398.484402,1036.288319,3849.070898,-77988.521696
2398.486996,-1332.370696,-1628.453072,-76456.330700
2398.489591,-12583.501014,1480.411884,-78907.836294
2398.492185,-6661.853478,888.247130,-78907.836294
2398.494779,-3256.906145,-2220.617826,-79367.493593
2398.497374,1480.411884,5033.400406,-76456.330700
2398.499968,-3997.112087,592.164754,-77375.645298
2398.502562,-888.247130,1776.494261,-78294.959896
2398.505157,-10066.800811,1776.494261,-78754.617194
2398.507751,-10807.006753,-296.082377,-78448.178995
2398.510346,-10362.883188,888.247130,-78448.178995
2398.512940,-5033.400406,-888.247130,-79061.055394
2398.515534,-1628.453072,2516.700203,-76609.549800
2398.518129,-1628.453072,3108.864956,-78754.617194
2398.520723,-10807.006753,-592.164754,-79673.931792
2398.523318,-9474.636058,888.247130,-79980.369991
2398.525912,-3849.070898,1924.535449,-77069.207099
2398.528506,9770.718434,1184.329507,-76762.768900
2398.531101,10510.924376,444.123565,-78141.740796
2398.533695,10807.006753,2516.700203,-79061.055394
2398.536290,3256.906145,1776.494261,-78754.617194
2398.538884,-148.041188,740.205942,-80593.246390
2398.541478,3108.864956,2072.576638,-78294.959896
2398.544073,7254.018232,-888.247130,-77069.207099
2398.546667,15396.283594,3849.070898,-73085.510509
2398.549261,2812.782580,444.123565,-78294.959896
2398.551856,5625.565159,-148.041188,-77682.083497
2398.554450,-7402.059420,2960.823768,-78754.617194
2398.557045,6513.812290,-592.164754,-79827.150892
2398.559639,7698.141797,2072.576638,-75690.235202
2398.562233,7550.100608,2368.659014,-77528.864398
2398.564828,20281.642811,888.247130,-76915.987999
2398.567422,3997.112087,-888.247130,-79673.931792
2398.570018,2220.617826,1480.411884,-78754.617194
2398.572613,3997.112087,-444.123565,-78754.617194
2398.575209,888.247130,2664.741391,-78141.740796
2398.577805,14359.995275,0.000000,-76915.987999
2398.580400,-4441.235652,1924.535449,-76762.768900
2398.582996,-4293.194464,1036.288319,-78294.959896
2398.585591,-13027.624579,3404.947333,-78448.178995
2398.588187,-2812.782580,-3256.906145,-79673.931792
2398.590782,-8586.388927,2220.617826,-77682.083497
2398.593378,8734.430116,-444.123565,-78601.398095
2398.595974,-4589.276840,2368.659014,-75996.673402
2398.598569,-8734.430116,888.247130,-79673.931792
2398.601165,-7402.059420,-1184.329507,-78141.740796
2398.603760,-13323.706956,3404.947333,-80286.808190
2398.606356,-1036.288319,2220.617826,-76915.987999
2398.608952,-740.205942,-148.041188,-77682.083497
2398.611547,-1332.370696,4293.194464,-75690.235202
2398.614143,-9622.677246,1184.329507,-77375.645298
2398.616738,-11103.089130,-2664.741391,-81052.903688
2398.619334,-13323.706956,5033.400406,-77988.521696
2398.621929,-4293.194464,-3552.988522,-79367.493593
2398.624525,-3552.988522,4145.153275,-74924.139704
2398.627121,-2960.823768,5181.441594,-77069.207099
2398.629716,-7254.018232,-444.123565,-78754.617194
2398.632312,-13323.706956,2516.700203,-79827.150892
2398.634907,-2368.659014,-2072.576638,-79061.055394
2398.637503,7846.182985,1628.453072,-77988.521696
2398.640099,12287.418637,148.041188,-76456.330700
2398.642694,15840.407159,3256.906145,-76915.987999
2398.645290,0.000000,3404.947333,-78448.178995
2398.647885,3404.947333,-592.164754,-80899.684589
2398.650481,-1036.288319,148.041188,-79214.274493
2398.653076,9770.718434,1924.535449,-77222.426198
2398.655672,7698.141797,1628.453072,-75230.577904
2398.658268,6513.812290,2220.617826,-76149.892501
2398.660863,2516.700203,1924.535449,-77682.083497
2398.663459,-4145.153275,592.164754,-81206.122788
2398.666054,2516.700203,2368.659014,-79827.150892
2398.668650,5625.565159,1036.288319,-78141.740796
2398.671246,17468.860231,-296.082377,-75996.673402
2398.673842,9918.759623,5477.523971,-74770.920605
2398.676438,9326.594869,-592.164754,-78907.836294
2398.679035,740.205942,-592.164754,-80440.027290
2398.681631,2220.617826,6069.688724,-78907.836294
2398.684228,9474.636058,-1776.494261,-79673.931792
2398.686824,8586.388927,4589.276840,-75537.016103
2398.689420,148.041188,-1776.494261,-77988.521696
2398.692017,-9474.636058,0.000000,-76609.549800
2398.694613,-18949.272115,3256.906145,-79673.931792
2398.697210,-1480.411884,-3404.947333,-80286.808190
2398.699806,148.041188,2220.617826,-76762.768900
2398.702403,-888.247130,4885.359217,-76456.330700
2398.704999,-3256.906145,-592.164754,-76609.549800
2398.707595,-9622.677246,1332.370696,-78601.398095
2398.710192,-7698.141797,-592.164754,-80593.246390
2398.712788,-5329.482782,-1480.411884,-78448.178995
2398.715385,2664.741391,592.164754,-77682.083497
2398.717981,2664.741391,3108.864956,-76609.549800
2398.720578,-2516.700203,3404.947333,-75843.454302
2398.723174,-9474.636058,444.123565,-79673.931792
2398.725770,-11251.130318,1184.329507,-79980.369991
2398.728367,-13915.871710,-3997.112087,-81052.903688
2398.730963,-2368.659014,1924.535449,-76456.330700
2398.733560,740.205942,3256.906145,-74770.920605
2398.736156,-6365.771101,-148.041188,-78294.959896
2398.738753,-11547.212695,3552.988522,-78754.617194
2398.741349,-3108.864956,-592.164754,-82125.437386
2398.743945,-1480.411884,888.247130,-79367.493593
2398.746542,14063.912898,-592.164754,-77528.864398
2398.749138,13323.706956,3997.112087,-75077.358804
2398.751735,6513.812290,888.247130,-77375.645298
2398.754331,-2664.741391,2812.782580,-78294.959896
2398.756928,6809.894666,1036.288319,-81052.903688
2398.759524,4737.318029,1036.288319,-80286.808190
2398.762120,10807.006753,1628.453072,-75537.016103
2398.764717,4589.276840,2220.617826,-76609.549800
2398.767313,4145.153275,2664.741391,-76456.330700
2398.769910,1184.329507,-740.205942,-79673.931792
2398.772506,0.000000,2812.782580,-80440.027290
2398.775103,2072.576638,2812.782580,-79673.931792
2398.777700,6365.771101,1628.453072,-78141.740796
2398.780297,18209.066173,4293.194464,-75537.016103
2398.782894,8882.471304,-1776.494261,-78907.836294
2398.785491,5773.606348,592.164754,-79367.493593
2398.788088,-296.082377,2664.741391,-79520.712692
2398.790685,5921.647536,-592.164754,-80286.808190
2398.793282,9770.718434,3256.906145,-75843.454302
2398.795879,3256.906145,592.164754,-78141.740796
2398.798476,-6957.935855,3108.864956,-74004.825107
2398.801072,-11399.171507,1332.370696,-79214.274493
2398.803669,-9326.594869,-1332.370696,-79673.931792
2398.806266,-6217.729913,148.041188,-78907.836294
2398.808863,0.000000,740.205942,-77988.521696
2398.811460,-2368.659014,2960.823768,-74617.701505
2398.814057,-12139.377449,1776.494261,-78601.398095
2398.816654,-9178.553681,-592.164754,-78294.959896
2398.819251,-11251.130318,2960.823768,-79214.274493
2398.821848,-740.205942,-2072.576638,-78907.836294
2398.824445,888.247130,-1036.288319,-76149.892501
2398.827042,1036.288319,4589.276840,-76609.549800
2398.829639,-12435.459826,-296.082377,-77835.302597
2398.832236,-13619.789333,2960.823768,-79827.150892
2398.834833,-8882.471304,-2220.617826,-81665.780087
2398.837430,-6069.688724,-3256.906145,-77528.864398
2398.840027,-740.205942,6957.935855,-73238.729609
2398.842624,-3997.112087,-2220.617826,-77528.864398
2398.845221,-6513.812290,2664.741391,-76149.892501
2398.847818,-5181.441594,444.123565,-82431.875585
2398.850415,1184.329507,-148.041188,-81206.122788
2398.853012,10362.883188,2220.617826,-77682.083497
2398.855609,14359.995275,2368.659014,-76149.892501
2398.858206,6069.688724,3552.988522,-75537.016103
2398.860803,1776.494261,740.205942,-77835.302597
2398.863401,3256.906145,-888.247130,-81359.341888
2398.865998,4441.235652,1332.370696,-80593.246390
2398.868595,4885.359217,1480.411884,-77835.302597
2398.871192,7402.059420,2664.741391,-76762.768900
2398.873789,3552.988522,3256.906145,-75537.016103
2398.876386,1184.329507,1332.370696,-77988.521696
2398.878984,-2072.576638,444.123565,-80593.246390
2398.881581,4145.153275,3108.864956,-78601.398095
2398.884178,11103.089130,148.041188,-78754.617194
2398.886775,8882.471304,6217.729913,-75230.577904
2398.889372,12583.501014,-296.082377,-77528.864398
2398.891969,2368.659014,-296.082377,-79980.369991
2398.894566,1332.370696,3997.112087,-79367.493593
2398.897164,7402.059420,-444.123565,-79980.369991
2398.899761,8142.265362,2220.617826,-77222.426198
2398.902358,6513.812290,1332.370696,-75843.454302
2398.904955,-9474.636058,1036.288319,-75537.016103
2398.907552,-13175.665768,3404.947333,-78448.178995
2398.910149,-4293.194464,-1776.494261,-79214.274493
2398.912747,-7254.018232,-740.205942,-81052.903688
2398.915344,3108.864956,2664.741391,-77528.864398
2398.917941,-1776.494261,2368.659014,-75690.235202
2398.920538,-5625.565159,3256.906145,-79367.493593
2398.923135,-8734.430116,-1480.411884,-78141.740796
2398.925732,-5181.441594,-444.123565,-81052.903688
2398.928329,-6513.812290,1628.453072,-78294.959896
2398.930927,148.041188,-148.041188,-76149.892501
2398.933524,-2220.617826,1628.453072,-76303.111601
2398.936121,-12731.542202,1628.453072,-77682.083497
2398.938718,-10214.842000,2072.576638,-79827.150892
2398.941315,-11547.212695,-592.164754,-81206.122788
2398.943912,-8290.306550,1480.411884,-78141.740796
2398.946510,-3552.988522,4293.194464,-74464.482406
2398.949107,-5625.565159,-1332.370696,-76762.768900
2398.951704,-1776.494261,1480.411884,-77528.864398
2398.954301,-1628.453072,-2664.741391,-80440.027290
2398.956898,5329.482782,4737.318029,-80593.246390
2398.959495,9622.677246,148.041188,-79520.712692
2398.962092,5477.523971,3997.112087,-76149.892501
2398.964689,592.164754,4145.153275,-75690.235202
2398.967285,5921.647536,888.247130,-77375.645298
2398.969881,2664.741391,-2812.782580,-80899.684589
2398.972478,6809.894666,4589.276840,-79673.931792
2398.975074,9622.677246,-1036.288319,-78601.398095
2398.977670,4441.235652,4589.276840,-76303.111601
2398.980266,-1480.411884,5329.482782,-75843.454302
2398.982863,-2812.782580,444.123565,-78907.836294
2398.985459,2368.659014,444.123565,-79980.369991
2398.988055,6069.688724,740.205942,-78907.836294
2398.990651,17320.819043,-1776.494261,-77835.302597
2398.993248,10510.924376,6069.688724,-75383.797003
2398.995844,5181.441594,1184.329507,-77682.083497
2398.998440,4441.235652,1776.494261,-79061.055394
2399.001036,1036.288319,5477.523971,-79061.055394
2399.003633,11251.130318,-2812.782580,-78601.398095
2399.006229,1776.494261,3849.070898,-76149.892501
2399.008825,-5773.606348,-148.041188,-76915.987999
2399.011422,-4885.359217,3256.906145,-76762.768900
2399.014018,-13767.830521,0.000000,-81206.122788
2399.016614,4293.194464,1924.535449,-79980.369991
2399.019210,-2368.659014,-1036.288319,-78907.836294
2399.021807,-5477.523971,5181.441594,-76762.768900
2399.024403,-6217.729913,740.205942,-74617.701505
2399.026999,-4293.194464,1184.329507,-76303.111601
2399.029595,-7402.059420,-1776.494261,-81665.780087
2399.032192,-1776.494261,1332.370696,-79827.150892
2399.034788,-296.082377,2220.617826,-79061.055394
2399.037384,-6365.771101,1332.370696,-76915.987999
2399.039980,-3552.988522,1480.411884,-76303.111601
2399.042577,-13027.624579,1184.329507,-78907.836294
2399.045173,-11843.295072,444.123565,-79673.931792
2399.047769,-6217.729913,-2664.741391,-79827.150892
2399.050366,-2516.700203,2960.823768,-77375.645298
2399.052962,-6513.812290,0.000000,-76456.330700
2399.055558,-7550.100608,3849.070898,-77222.426198
2399.058154,-4737.318029,0.000000,-79367.493593
2399.060751,3108.864956,-296.082377,-80286.808190
2399.063347,13323.706956,2072.576638,-78448.178995
2399.065943,7994.224174,1332.370696,-76456.330700
2399.068504,6217.729913,2812.782580,-76149.892501
2399.071065,-888.247130,2812.782580,-77528.864398
2399.073626,2812.782580,-296.082377,-81359.341888
2399.076187,7994.224174,-1184.329507,-79980.369991
2399.078748,10362.883188,740.205942,-77835.302597
2399.081309,-1184.329507,2072.576638,-76762.768900
2399.083870,-592.164754,2664.741391,-75537.016103
2399.086431,888.247130,1924.535449,-79061.055394
2399.088992,3256.906145,1924.535449,-79980.369991
2399.091553,9918.759623,1036.288319,-80133.589091
2399.094114,13767.830521,-888.247130,-79061.055394
2399.096675,10955.047942,3997.112087,-75230.577904
2399.099236,4145.153275,1184.329507,-77069.207099
2399.101797,6217.729913,3256.906145,-77835.302597
2399.104358,1332.370696,888.247130,-81052.903688
2399.106919,12435.459826,740.205942,-78448.178995
2399.109480,1332.370696,2220.617826,-77375.645298
2399.112041,-9918.759623,2220.617826,-74617.701505
2399.114602,-13027.624579,4145.153275,-76609.549800
2399.117163,-8290.306550,-2960.823768,-81512.560987
2399.119724,2220.617826,740.205942,-79214.274493
2399.122285,-3849.070898,1332.370696,-79214.274493
2399.124846,-2812.782580,3997.112087,-74924.139704
2399.127406,-12879.583391,-444.123565,-76915.987999
2399.129967,-4293.194464,4737.318029,-77222.426198
2399.132528,-4441.235652,-888.247130,-81052.903688
2399.135089,4293.194464,-2812.782580,-79520.712692
2399.137650,-296.082377,4589.276840,-74617.701505
2399.140211,-8882.471304,1480.411884,-77528.864398
2399.142772,-5921.647536,3552.988522,-77375.645298
2399.145333,-14804.118840,-1628.453072,-80440.027290
2399.147894,-5773.606348,1628.453072,-80286.808190
2399.150455,-4885.359217,-740.205942,-79061.055394
2399.153016,-4293.194464,1924.535449,-77069.207099
2399.155577,-2960.823768,2516.700203,-74770.920605
2399.158138,-16432.571912,2812.782580,-78141.740796
2399.160699,1332.370696,-2220.617826,-81206.122788
2399.163260,5329.482782,1480.411884,-80286.808190
2399.165821,10362.883188,-592.164754,-79367.493593
2399.168382,12879.583391,2516.700203,-74770.920605
2399.170949,-3997.112087,4145.153275,-75537.016103
2399.173516,-1480.411884,-444.123565,-78754.617194
2399.176082,4145.153275,1036.288319,-78601.398095
2399.178649,10066.800811,148.041188,-82125.437386
2399.181216,10658.965565,-148.041188,-77528.864398
2399.183782,-1776.494261,4589.276840,-74464.482406
2399.186349,740.205942,1480.411884,-77069.207099
2399.188916,-444.123565,740.205942,-78448.178995
2399.191482,5033.400406,1924.535449,-80899.684589
2399.194049,10066.800811,-1480.411884,-80286.808190
2399.196616,13175.665768,4589.276840,-74004.825107
2399.199183,10510.924376,4589.276840,-76303.111601
2399.201749,1776.494261,-2368.659014,-77528.864398
2399.204316,1332.370696,5625.565159,-79367.493593
2399.206883,7550.100608,-3404.947333,-81359.341888
2399.209449,9770.718434,3256.906145,-76915.987999
2399.212016,-1332.370696,740.205942,-77835.302597
2399.214583,-9622.677246,6069.688724,-74158.044206
2399.217150,-17320.819043,3552.988522,-77682.083497
2399.219716,4293.194464,-2812.782580,-81512.560987
2399.222283,-1924.535449,0.000000,-79061.055394
2399.224850,3701.029710,2220.617826,-77375.645298
2399.227416,-8882.471304,2664.741391,-74617.701505
2399.229983,-10214.842000,3997.112087,-77375.645298
2399.232550,-7550.100608,1184.329507,-80440.027290
2399.235116,-1628.453072,1332.370696,-81052.903688
2399.237683,-2664.741391,-2368.659014,-80593.246390
2399.240250,2516.700203,2960.823768,-73698.386908
2399.242817,-12731.542202,-592.164754,-76456.330700
2399.245383,-5181.441594,2664.741391,-75996.673402
2399.247950,-6957.935855,-148.041188,-79673.931792
2399.250517,-8882.471304,-2516.700203,-82278.656485
2399.253083,-1480.411884,4441.235652,-77682.083497
2399.255650,-2664.741391,1628.453072,-75230.577904
2399.258217,-12435.459826,1036.288319,-76762.768900
2399.260784,-3552.988522,1776.494261,-74311.263306
2399.263350,2072.576638,-3552.988522,-83197.971083
2399.265917,13027.624579,740.205942,-79673.931792
2399.268484,15544.324782,148.041188,-78448.178995
2399.271050,4737.318029,3997.112087,-76915.987999
2399.273622,-1332.370696,4885.359217,-73391.948708
2399.276193,0.000000,-296.082377,-80746.465489
2399.278765,7846.182985,-1332.370696,-80746.465489
2399.281336,10066.800811,-592.164754,-77528.864398
2399.283908,-3256.906145,1924.535449,-78141.740796
2399.286479,444.123565,3256.906145,-74464.482406
2399.289051,888.247130,1924.535449,-77682.083497
2399.291622,6069.688724,1184.329507,-81206.122788
2399.294194,8882.471304,-3849.070898,-81206.122788
2399.296765,9474.636058,4885.359217,-78141.740796
2399.299337,9326.594869,2664.741391,-75537.016103
2399.301908,2368.659014,-3256.906145,-75690.235202
2399.304480,2812.782580,5033.400406,-79367.493593
2399.307051,6957.935855,-296.082377,-79673.931792
2399.309623,8438.347739,-2516.700203,-81512.560987
2399.312194,4589.276840,3108.864956,-77988.521696
2399.314765,-11251.130318,3256.906145,-73085.510509
2399.317337,-17024.736666,5921.647536,-75843.454302
2399.319908,-9030.512492,-444.123565,-77988.521696
2399.322480,-740.205942,-1480.411884,-81972.218286
2399.325051,3404.947333,3256.906145,-78754.617194
2399.327623,-2960.823768,2516.700203,-75383.797003
2399.330194,-9030.512492,1332.370696,-76915.987999
2399.332766,-2960.823768,3108.864956,-76762.768900
2399.335337,-5625.565159,1480.411884,-79980.369991
2399.337909,1924.535449,-740.205942,-81206.122788
2399.340480,740.205942,3552.988522,-75537.016103
2399.343052,-8882.471304,2072.576638,-76915.987999
2399.345623,-8734.430116,4145.153275,-75077.358804
2399.348195,-9918.759623,296.082377,-77835.302597
2399.350766,-8734.430116,-4293.194464,-82278.656485
2399.353338,444.123565,1480.411884,-78601.398095
2399.355909,-4293.194464,2072.576638,-76149.892501
2399.358481,-7846.182985,2516.700203,-76762.768900
2399.361052,-8438.347739,2812.782580,-73698.386908
2399.363624,2368.659014,-740.205942,-82278.656485
2399.366195,12435.459826,-1184.329507,-79214.274493
2399.368767,13471.748144,-1184.329507,-78601.398095
2399.371338,5625.565159,3552.988522,-77528.864398
2399.373909,592.164754,3108.864956,-75383.797003
2399.376482,-5181.441594,740.205942,-80440.027290
2399.379056,6809.894666,296.082377,-79673.931792
2399.381630,11991.336260,740.205942,-78294.959896
2399.384205,7105.977043,-148.041188,-78141.740796
2399.386779,-2220.617826,2812.782580,-74770.920605
2399.389353,2812.782580,1036.288319,-76762.768900
2399.391927,6661.853478,0.000000,-79673.931792
2399.394502,8734.430116,-1776.494261,-80746.465489
2399.397076,9918.759623,2220.617826,-80593.246390
2399.399650,9770.718434,4589.276840,-75537.016103
2399.402224,1924.535449,-296.082377,-76609.549800
2399.404799,1036.288319,5773.606348,-76915.987999
2399.407373,5181.441594,-2072.576638,-79520.712692
2399.409947,7698.141797,-1184.329507,-81359.341888
2399.412521,-1332.370696,2220.617826,-78907.836294
2399.415096,-11991.336260,5181.441594,-75383.797003
2399.417670,-18653.189738,3849.070898,-77528.864398
2399.420244,-4145.153275,2220.617826,-76762.768900
2399.422818,-5181.441594,-1184.329507,-81818.999186
2399.425393,7254.018232,-592.164754,-79367.493593
2399.427967,-3701.029710,1924.535449,-75690.235202
2399.430541,-10066.800811,444.123565,-76303.111601
2399.433115,-11547.212695,4885.359217,-77222.426198
2399.435690,-3552.988522,-740.205942,-80746.465489
2399.438264,592.164754,444.123565,-80440.027290
2399.440838,-5033.400406,-296.082377,-77222.426198
2399.443412,-10807.006753,3108.864956,-76762.768900
2399.445987,-12139.377449,2220.617826,-75690.235202
2399.448561,-7698.141797,-444.123565,-78601.398095
2399.451135,-6365.771101,-592.164754,-80133.589091
2399.453709,-1776.494261,1628.453072,-79061.055394
2399.456284,-3256.906145,592.164754,-78601.398095
2399.458858,-10214.842000,3404.947333,-75690.235202
2399.461432,-5477.523971,740.205942,-76456.330700
2399.464006,11547.212695,2516.700203,-79980.369991
2399.466581,14952.160028,-1184.329507,-79673.931792
2399.469155,15692.365970,1776.494261,-79520.712692
2399.471729,3849.070898,148.041188,-76915.987999
2399.474303,0.000000,4293.194464,-75537.016103
2399.476878,740.205942,-740.205942,-80133.589091
2399.479454,3997.112087,2812.782580,-79061.055394
2399.482031,14804.118840,-1184.329507,-79673.931792
2399.484608,3108.864956,2220.617826,-76609.549800
2399.487185,-1184.329507,2516.700203,-76762.768900
2399.489761,-740.205942,1480.411884,-76915.987999
2399.492338,8142.265362,0.000000,-80593.246390
2399.494915,14656.077652,1332.370696,-79061.055394
2399.497492,5181.441594,444.123565,-78907.836294
2399.500069,9474.636058,2812.782580,-75537.016103
2399.502645,888.247130,3108.864956,-76609.549800
2399.505222,740.205942,2368.659014,-78294.959896
2399.507799,6217.729913,-1332.370696,-79520.712692
2399.510376,5477.523971,592.164754,-79673.931792
2399.512952,-4145.153275,592.164754,-77069.207099
2399.515529,-10955.047942,2368.659014,-77222.426198
2399.518106,-15396.283594,-888.247130,-78294.959896
2399.520683,-1924.535449,1628.453072,-79061.055394
2399.523259,5329.482782,-592.164754,-79980.369991
2399.525836,-3404.947333,3256.906145,-76762.768900
2399.528413,-8142.265362,740.205942,-77528.864398
2399.530990,-14211.954086,4737.318029,-76762.768900
2399.533566,-4145.153275,444.123565,-80286.808190
2399.536143,0.000000,444.123565,-78294.959896
2399.538720,-3849.070898,1036.288319,-78907.836294
2399.541297,-5773.606348,2960.823768,-77375.645298
2399.543874,-11695.253884,888.247130,-75537.016103
2399.546450,-8142.265362,2072.576638,-77835.302597
2399.549027,-4737.318029,2220.617826,-79214.274493
2399.551604,-2072.576638,-1036.288319,-80593.246390
2399.554181,-2220.617826,1924.535449,-76915.987999
2399.556757,-11695.253884,4293.194464,-76762.768900
2399.559334,-2220.617826,-1628.453072,-78141.740796
2399.561911,6069.688724,3552.988522,-78754.617194
2399.564488,13175.665768,-592.164754,-79980.369991
2399.567064,12879.583391,296.082377,-78141.740796
2399.569641,3849.070898,3108.864956,-76762.768900
2399.572218,-592.164754,148.041188,-76915.987999
2399.574795,-1332.370696,740.205942,-78141.740796
2399.577371,3997.112087,-592.164754,-81972.218286
2399.579948,11843.295072,1776.494261,-77835.302597
2399.582527,1480.411884,740.205942,-77222.426198
2399.585106,-5921.647536,2368.659014,-76609.549800
2399.587685,3404.947333,888.247130,-76303.111601
2399.590264,1924.535449,740.205942,-79367.493593
2399.592843,12879.583391,-1036.288319,-80746.465489
2399.595422,9918.759623,148.041188,-79214.274493
2399.598001,7550.100608,2368.659014,-77988.521696
2399.600580,2664.741391,2516.700203,-76762.768900
2399.603159,5477.523971,1184.329507,-78294.959896
2399.605738,6957.935855,-1480.411884,-80440.027290
2399.608317,3256.906145,592.164754,-77988.521696
2399.610895,-7402.059420,740.205942,-76609.549800
2399.613474,-13619.789333,2960.823768,-76762.768900
2399.616053,-11103.089130,1480.411884,-76915.987999
2399.618632,-2072.576638,148.041188,-81665.780087
2399.621211,-1184.329507,3108.864956,-77988.521696
2399.623790,740.205942,3404.947333,-78448.178995
2399.626369,-9326.594869,-2960.823768,-77375.645298
2399.628948,-6957.935855,5033.400406,-74924.139704
2399.631527,-3849.070898,-1480.411884,-81052.903688
2399.634106,-1332.370696,2516.700203,-78601.398095
2399.636685,-1776.494261,2220.617826,-79520.712692
2399.639264,-6217.729913,2664.741391,-76762.768900
2399.641843,-16580.613101,3552.988522,-75690.235202
2399.644422,-8438.347739,1480.411884,-77682.083497
2399.647001,-6661.853478,888.247130,-79367.493593
2399.649580,-3849.070898,-888.247130,-79214.274493
2399.652158,-740.205942,148.041188,-77682.083497
2399.654737,-5181.441594,4293.194464,-76149.892501
2399.657316,-8586.388927,888.247130,-77528.864398
2399.659895,10362.883188,4737.318029,-77988.521696
2399.662474,9770.718434,-4145.153275,-80899.684589
2399.665053,21762.054695,1480.411884,-77528.864398
2399.667632,-1480.411884,3849.070898,-76149.892501
2399.670211,1480.411884,-1776.494261,-78754.617194
2399.672790,-888.247130,4293.194464,-76609.549800
2399.675369,7550.100608,-888.247130,-81206.122788
2399.677948,13915.871710,740.205942,-78754.617194
2399.680527,4441.235652,148.041188,-78754.617194
2399.683106,0.000000,3108.864956,-76915.987999
2399.685686,888.247130,740.205942,-77682.083497
2399.688266,14063.912898,592.164754,-79980.369991
2399.690845,13323.706956,-2516.700203,-80593.246390
2399.693425,9918.759623,3701.029710,-76762.768900
2399.696005,2664.741391,-592.164754,-77682.083497
2399.698585,740.205942,5921.647536,-75230.577904
2399.701165,5921.647536,1036.288319,-79367.493593
2399.703745,8142.265362,-444.123565,-80593.246390
2399.706325,2368.659014,1924.535449,-78141.740796
2399.708905,-8438.347739,1036.288319,-77528.864398
2399.711485,-20429.683999,2516.700203,-77069.207099
2399.714065,-2960.823768,592.164754,-77528.864398
2399.716645,-4441.235652,0.000000,-80133.589091
2399.719225,5181.441594,592.164754,-79367.493593
2399.721804,-1332.370696,2072.576638,-76456.330700
2399.724384,-7105.977043,2664.741391,-78141.740796
2399.726964,-10214.842000,4589.276840,-75996.673402
2399.729544,-4441.235652,-148.041188,-79214.274493
2399.732124,888.247130,1924.535449,-78294.959896
2399.734704,-5477.523971,-148.041188,-78907.836294
2399.737284,-13027.624579,0.000000,-78907.836294
2399.739864,-12879.583391,3256.906145,-76762.768900
2399.742444,-9474.636058,1924.535449,-77988.521696
2399.745024,-3849.070898,444.123565,-79367.493593
2399.747604,-888.247130,592.164754,-77835.302597
2399.750184,-5921.647536,2368.659014,-77528.864398
2399.752763,-5033.400406,740.205942,-75996.673402
2399.755343,-1776.494261,1480.411884,-77988.521696
2399.757923,12435.459826,1332.370696,-79827.150892
2399.760503,13027.624579,888.247130,-77988.521696
2399.763083,11547.212695,1184.329507,-80593.246390
2399.765663,2812.782580,3849.070898,-76149.892501
2399.768243,-2812.782580,2368.659014,-76303.111601
2399.770823,592.164754,-740.205942,-79061.055394
2399.773403,14804.118840,1628.453072,-78601.398095
2399.775983,4441.235652,-3256.906145,-80440.027290
2399.778563,592.164754,3849.070898,-76303.111601
2399.781142,888.247130,4145.153275,-76303.111601
2399.783722,4737.318029,592.164754,-80593.246390
2399.786302,11399.171507,1036.288319,-78294.959896
2399.788850,10658.965565,2960.823768,-79980.369991
2399.791397,13767.830521,-2812.782580,-77069.207099
2399.793945,1628.453072,-296.082377,-77069.207099
2399.796492,1332.370696,5181.441594,-78141.740796
2399.799040,4589.276840,-1480.411884,-79214.274493
2399.801587,4737.318029,2664.741391,-80440.027290
2399.804135,-7846.182985,592.164754,-79367.493593
2399.806683,-11103.089130,5181.441594,-75690.235202
2399.809230,-14804.118840,296.082377,-77988.521696
2399.811778,-3701.029710,1036.288319,-78448.178995
2399.814325,-4441.235652,0.000000,-79061.055394
2399.816873,5033.400406,2516.700203,-79367.493593
2399.819420,-6365.771101,-2516.700203,-79520.712692
2399.821968,-2960.823768,4737.318029,-75230.577904
2399.824515,-6957.935855,2220.617826,-79061.055394
2399.827063,4293.194464,0.000000,-77988.521696
2399.829610,-1776.494261,-592.164754,-78448.178995
2399.832158,-9326.594869,2368.659014,-76762.768900
2399.834705,-15396.283594,2516.700203,-76762.768900
2399.837253,-11695.253884,592.164754,-78754.617194
2399.839800,-4145.153275,2220.617826,-78448.178995
2399.842348,-3997.112087,-1184.329507,-80593.246390
2399.844895,1036.288319,1924.535449,-77988.521696
2399.847443,-7846.182985,-148.041188,-76456.330700
2399.849990,-2812.782580,2812.782580,-76609.549800
2399.852538,11399.171507,2072.576638,-78448.178995
2399.855085,14211.954086,-2072.576638,-79980.369991
2399.857633,12435.459826,3404.947333,-78907.836294
2399.860180,3256.906145,-296.082377,-76915.987999
2399.862728,1184.329507,1776.494261,-77069.207099
2399.865276,1184.329507,3256.906145,-77222.426198
2399.867823,7698.141797,-296.082377,-79367.493593
2399.870371,5773.606348,0.000000,-78754.617194
2399.872918,3108.864956,1480.411884,-76303.111601
2399.875466,592.164754,3849.070898,-77222.426198
2399.878013,4145.153275,444.123565,-79214.274493
2399.880561,13915.871710,740.205942,-78754.617194
2399.883108,11103.089130,2220.617826,-78601.398095
2399.885656,5921.647536,888.247130,-77528.864398
2399.888203,6661.853478,3108.864956,-75996.673402
2399.890758,-592.164754,3997.112087,-77069.207099
2399.893312,8734.430116,-444.123565,-78448.178995
2399.895866,3108.864956,1480.411884,-79061.055394
2399.898421,-3849.070898,-1480.411884,-78448.178995
2399.900975,-11547.212695,5033.400406,-75690.235202
2399.903530,-14211.954086,2220.617826,-75690.235202
2399.906084,-7254.018232,-888.247130,-80133.589091
2399.908639,2812.782580,4293.194464,-76762.768900
2399.911193,0.000000,-1184.329507,-79980.369991
2399.913747,-7550.100608,2516.700203,-76762.768900
2399.916302,-1480.411884,-592.164754,-76456.330700
2399.918856,-4885.359217,2368.659014,-78448.178995
2399.921411,-2812.782580,148.041188,-78601.398095
2399.923965,2812.782580,-1332.370696,-80286.808190
2399.926519,-13471.748144,4145.153275,-77528.864398
2399.929074,-13619.789333,4145.153275,-75996.673402
2399.931628,-11991.336260,-2812.782580,-77988.521696
2399.934183,-888.247130,3108.864956,-78907.836294
2399.936737,-5773.606348,-444.123565,-79367.493593
2399.939292,-1036.288319,3849.070898,-77835.302597
2399.941846,-9474.636058,592.164754,-76762.768900
2399.944400,1628.453072,4589.276840,-77835.302597
2399.946955,8438.347739,-888.247130,-79673.931792
2399.949509,18505.148550,-740.205942,-78601.398095
2399.952064,10362.883188,2368.659014,-77528.864398
2399.954618,1776.494261,740.205942,-76303.111601
2399.957173,-740.205942,1776.494261,-78907.836294
2399.959727,5033.400406,-1480.411884,-80133.589091
2399.962281,11103.089130,3849.070898,-77682.083497
2399.964836,2368.659014,-1480.411884,-80286.808190
2399.967390,5773.606348,1924.535449,-75996.673402
2399.969945,-2072.576638,3256.906145,-76762.768900
2399.972499,9770.718434,1184.329507,-78907.836294
2399.975053,15100.201217,-3256.906145,-80440.027290
2399.977608,10066.800811,0.000000,-79980.369991
2399.980162,6513.812290,5033.400406,-76609.549800
2399.982717,1924.535449,4589.276840,-77375.645298
2399.985271,2960.823768,-1184.329507,-78601.398095
2399.987826,4441.235652,3404.947333,-77375.645298
2399.990380,-5033.400406,-3256.906145,-80593.246390
2399.992940,-4145.153275,2220.617826,-77069.207099
2399.995500,-20725.766376,2960.823768,-77528.864398
2399.998060,-2072.576638,296.082377,-77835.302597
2400.000621,-10066.800811,1332.370696,-77988.521696
2400.003181,740.205942,2220.617826,-79980.369991
2400.005741,-2072.576638,2220.617826,-76149.892501
2400.008301,-10510.924376,888.247130,-78448.178995
2400.010861,-11103.089130,592.164754,-77835.302597
2400.013421,-740.205942,3997.112087,-77682.083497
2400.015981,-2368.659014,-2664.741391,-81972.218286
2400.018541,-4589.276840,2368.659014,-78141.740796
2400.021102,-11399.171507,4145.153275,-76915.987999
2400.023662,-15988.448347,-888.247130,-78448.178995
2400.026222,-7105.977043,3108.864956,-76915.987999
2400.028782,-8734.430116,296.082377,-79827.150892
2400.031342,4293.194464,-888.247130,-77375.645298
2400.033902,-6661.853478,3552.988522,-76915.987999
2400.036462,-5921.647536,-1628.453072,-79827.150892
2400.039023,9326.594869,9030.512492,-75690.235202
2400.041583,10214.842000,-3701.029710,-81818.999186
2400.044143,12583.501014,2072.576638,-77835.302597
2400.046703,6217.729913,1332.370696,-75996.673402
2400.049263,-2368.659014,1628.453072,-77988.521696
2400.051823,-296.082377,4589.276840,-75843.454302
2400.054383,2220.617826,-592.164754,-79827.150892
2400.056944,14508.036463,148.041188,-79980.369991
2400.059504,-1036.288319,1480.411884,-78601.398095
2400.062064,-888.247130,444.123565,-79214.274493
2400.064624,296.082377,3849.070898,-76915.987999
2400.067184,18505.148550,-740.205942,-77835.302597
2400.069744,14952.160028,-148.041188,-79520.712692
2400.072304,6217.729913,1628.453072,-77988.521696
2400.074864,7105.977043,296.082377,-77682.083497
2400.077425,2516.700203,5181.441594,-76456.330700
2400.079985,5181.441594,-1184.329507,-78907.836294
2400.082545,-740.205942,1628.453072,-78601.398095
2400.085105,-7402.059420,296.082377,-77375.645298
2400.087665,-9326.594869,3701.029710,-77988.521696
2400.090225,-12583.501014,1036.288319,-77682.083497
2400.092785,-7698.141797,-444.123565,-79214.274493
2400.095350,2220.617826,3404.947333,-79214.274493
2400.097914,296.082377,1776.494261,-77375.645298
2400.100478,-8882.471304,148.041188,-78601.398095
2400.103042,-8290.306550,4885.359217,-76303.111601
2400.105606,-3256.906145,148.041188,-79827.150892
2400.108171,-1924.535449,2072.576638,-77835.302597
2400.110735,1332.370696,-592.164754,-80286.808190
2400.113299,-7698.141797,2368.659014,-76915.987999
2400.115863,-12583.501014,1628.453072,-77069.207099
2400.118427,-12879.583391,1628.453072,-78141.740796
2400.120992,-3701.029710,2220.617826,-77835.302597
2400.123556,-3997.112087,-888.247130,-78448.178995
2400.126120,-2960.823768,4737.318029,-76762.768900
2400.128684,-2812.782580,-4293.194464,-79367.493593
2400.131249,8142.265362,7254.018232,-75996.673402
2400.133813,7550.100608,-2516.700203,-81052.903688
2400.136377,8290.306550,1628.453072,-77375.645298
2400.138941,6809.894666,1332.370696,-78141.740796
2400.141505,3849.070898,2220.617826,-76456.330700
2400.144070,3849.070898,1332.370696,-78754.617194
2400.146634,9030.512492,-2812.782580,-80899.684589
2400.149198,7846.182985,2960.823768,-77528.864398
2400.151762,2220.617826,-1036.288319,-79367.493593
2400.154326,4589.276840,1776.494261,-76303.111601
2400.156891,1628.453072,2516.700203,-77988.521696
2400.159455,7550.100608,1776.494261,-77682.083497
2400.162019,11547.212695,-148.041188,-79673.931792
2400.164583,11695.253884,2220.617826,-79980.369991
2400.167147,8142.265362,2516.700203,-77682.083497
2400.169712,1036.288319,2516.700203,-77528.864398
2400.172276,6069.688724,-148.041188,-79367.493593
2400.174840,-592.164754,1184.329507,-77988.521696
2400.177404,-7402.059420,-592.164754,-78294.959896
2400.179968,-13471.748144,6069.688724,-76762.768900
2400.182533,-11103.089130,-3404.947333,-79214.274493
2400.185097,-2516.700203,4737.318029,-76303.111601
2400.187661,-4737.318029,-1036.288319,-79980.369991
2400.190225,444.123565,4737.318029,-76456.330700
2400.192790,-7698.141797,-2220.617826,-79673.931792
2400.195354,-10807.006753,4441.235652,-76149.892501
2400.197921,-9326.594869,4441.235652,-78294.959896
2400.200489,5329.482782,-2368.659014,-78754.617194
2400.203057,-6069.688724,888.247130,-77069.207099
2400.205625,-10955.047942,2368.659014,-79061.055394
2400.208193,-13767.830521,1332.370696,-76915.987999
2400.210760,-9622.677246,444.123565,-78754.617194
2400.213328,-4441.235652,4145.153275,-77069.207099
2400.215896,-4737.318029,-3256.906145,-78294.959896
2400.218464,-3997.112087,4293.194464,-77375.645298
2400.221031,-3552.988522,-1184.329507,-77835.302597
2400.223599,4589.276840,4145.153275,-77222.426198
2400.226167,9622.677246,-2812.782580,-81512.560987
2400.228735,17764.942608,3552.988522,-76456.330700
2400.231302,2960.823768,444.123565,-78601.398095
2400.233870,1332.370696,888.247130,-77375.645298
2400.236438,-592.164754,3552.988522,-75996.673402
2400.239006,8142.265362,-2220.617826,-80746.465489
2400.241573,15100.201217,1184.329507,-77682.083497
2400.244141,-444.123565,740.205942,-78601.398095
2400.246709,4589.276840,148.041188,-76456.330700
2400.249277,4441.235652,5329.482782,-75077.358804
2400.251844,9326.594869,-592.164754,-81206.122788
2400.254412,11103.089130,-2368.659014,-80593.246390
2400.256980,10658.965565,3256.906145,-77069.207099
2400.259548,3849.070898,1332.370696,-77988.521696
2400.262115,4737.318029,1924.535449,-77069.207099
2400.264683,5033.400406,-148.041188,-79520.712692
2400.267251,2516.700203,1332.370696,-79214.274493
2400.269819,-8438.347739,592.164754,-77682.083497
2400.272387,-11251.130318,2664.741391,-79061.055394
2400.274954,-9178.553681,2516.700203,-76303.111601
2400.277522,-3849.070898,444.123565,-79367.493593
