#time,accel_x,accel_y,accel_z
2536.655722,-888.247130,592.164754,-78141.740796
2536.658336,-592.164754,1628.453072,-77682.083497
2536.660950,1184.329507,592.164754,-77835.302597
2536.663564,444.123565,1776.494261,-76762.768900
2536.666178,-1184.329507,1036.288319,-78601.398095
2536.668792,-1184.329507,148.041188,-78294.959896
2536.671406,-296.082377,-592.164754,-77835.302597
2536.674020,1628.453072,296.082377,-78754.617194
2536.676634,1628.453072,740.205942,-78907.836294
2536.679248,-740.205942,-1924.535449,-79367.493593
2536.681862,-1184.329507,5921.647536,-77682.083497
2536.684476,1184.329507,-3997.112087,-78141.740796
2536.687090,-148.041188,-5329.482782,-77528.864398
2536.689704,-1036.288319,-13471.748144,-79367.493593
2536.692318,888.247130,-5329.482782,-76149.892501
2536.694932,444.123565,11991.336260,-78448.178995
2536.697546,1628.453072,-1332.370696,-81359.341888
2536.700160,-592.164754,7550.100608,-78141.740796
2536.702773,-888.247130,-14656.077652,-82278.656485
2536.705387,2812.782580,-7846.182985,-72012.976812
2536.708001,-296.082377,6661.853478,-73391.948708
2536.710615,1924.535449,2072.576638,-79367.493593
2536.713229,2072.576638,10066.800811,-79673.931792
2536.715843,0.000000,6513.812290,-83810.847481
2536.718457,-1480.411884,888.247130,-78294.959896
2536.721072,0.000000,8438.347739,-70940.443115
2536.723686,-1036.288319,-6513.812290,-73391.948708
2536.726301,1036.288319,19837.519246,-71859.757712
2536.728915,-1332.370696,-7550.100608,-89786.392366
2536.731530,-2516.700203,888.247130,-84730.162079
2536.734144,1924.535449,14656.077652,-79367.493593
2536.736759,-5181.441594,296.082377,-77069.207099
2536.739373,148.041188,4441.235652,-69561.471218
2536.741988,2960.823768,592.164754,-75230.577904
2536.744602,-296.082377,1776.494261,-81359.341888
2536.747217,-740.205942,5329.482782,-83504.409282
2536.749831,3552.988522,5921.647536,-83504.409282
2536.752446,-740.205942,7994.224174,-75690.235202
2536.755061,-2368.659014,2072.576638,-74924.139704
2536.757675,-3849.070898,-4145.153275,-73545.167808
2536.760290,1184.329507,5329.482782,-76303.111601
2536.762904,-1036.288319,9326.594869,-80746.465489
2536.765519,-3849.070898,11547.212695,-81512.560987
2536.768133,1924.535449,11399.171507,-81052.903688
2536.770748,2220.617826,1628.453072,-77528.864398
2536.773362,888.247130,-8142.265362,-75996.673402
2536.775977,-1184.329507,11991.336260,-73698.386908
2536.778591,-1924.535449,3404.947333,-79214.274493
2536.781206,4589.276840,9178.553681,-79827.150892
2536.783820,-444.123565,6809.894666,-80593.246390
2536.786435,-2072.576638,7550.100608,-79367.493593
2536.789049,2368.659014,-888.247130,-75996.673402
2536.791664,444.123565,888.247130,-73698.386908
2536.794278,296.082377,5477.523971,-76456.330700
2536.796893,-592.164754,-9918.759623,-80899.684589
2536.799507,1480.411884,4145.153275,-78754.617194
2536.802122,-2664.741391,2960.823768,-80286.808190
2536.804736,-444.123565,6365.771101,-76303.111601
2536.807351,-296.082377,-1184.329507,-76303.111601
2536.809965,-444.123565,-11399.171507,-78907.836294
2536.812580,740.205942,-888.247130,-76456.330700
2536.815194,-1776.494261,-13471.748144,-83044.751983
2536.817809,1332.370696,12435.459826,-74464.482406
2536.820424,-2072.576638,-444.123565,-81665.780087
2536.823038,888.247130,-10807.006753,-79980.369991
2536.825517,6365.771101,-1184.329507,-74464.482406
2536.827997,592.164754,1924.535449,-77069.207099
2536.830476,-592.164754,296.082377,-76762.768900
2536.832955,-1332.370696,-4145.153275,-77988.521696
2536.835434,-592.164754,1480.411884,-79520.712692
2536.837914,0.000000,-7402.059420,-81512.560987
2536.840393,-2664.741391,-1036.288319,-78754.617194
2536.842872,1332.370696,3849.070898,-75537.016103
2536.845352,-296.082377,-3997.112087,-76762.768900
2536.847831,296.082377,-2368.659014,-78141.740796
2536.850310,444.123565,5477.523971,-77375.645298
2536.852790,592.164754,2664.741391,-79980.369991
2536.855269,592.164754,-5625.565159,-79214.274493
2536.857748,-888.247130,2516.700203,-76915.987999
2536.860227,740.205942,-10658.965565,-79214.274493
2536.862707,3552.988522,-5329.482782,-76303.111601
2536.865186,-2812.782580,-444.123565,-79980.369991
2536.867665,2368.659014,-7698.141797,-80746.465489
2536.870145,1332.370696,12583.501014,-76303.111601
2536.872624,-2072.576638,-9770.718434,-82278.656485
2536.875103,1776.494261,4293.194464,-74004.825107
2536.877582,-740.205942,-9178.553681,-77835.302597
2536.880062,2664.741391,888.247130,-76149.892501
2536.882541,-1036.288319,2516.700203,-78294.959896
2536.885020,888.247130,-10807.006753,-83504.409282
2536.887500,888.247130,11547.212695,-76762.768900
2536.889979,-2664.741391,-5181.441594,-81665.780087
2536.892458,-296.082377,444.123565,-75230.577904
2536.894937,-1480.411884,3701.029710,-72932.291410
2536.897417,-1332.370696,6513.812290,-76762.768900
2536.899896,1628.453072,10807.006753,-78601.398095
2536.902375,-1776.494261,-6957.935855,-84423.723880
2536.904855,3256.906145,9918.759623,-76456.330700
2536.907334,1184.329507,592.164754,-77222.426198
2536.909813,296.082377,14359.995275,-74311.263306
2536.912292,-888.247130,-740.205942,-78754.617194
2536.914772,1036.288319,-2368.659014,-78601.398095
2536.917251,296.082377,9770.718434,-76915.987999
2536.919730,-1184.329507,5773.606348,-80593.246390
2536.922210,-4293.194464,4145.153275,-78294.959896
2536.924730,-888.247130,8734.430116,-77988.521696
2536.927251,-592.164754,-6217.729913,-80286.808190
2536.929772,444.123565,7402.059420,-76915.987999
2536.932293,-2516.700203,296.082377,-79214.274493
2536.934814,-1184.329507,9030.512492,-75230.577904
2536.937335,148.041188,2664.741391,-78141.740796
2536.939855,0.000000,-3108.864956,-79980.369991
2536.942376,296.082377,3849.070898,-77682.083497
2536.944897,296.082377,3997.112087,-78294.959896
2536.947418,-296.082377,2960.823768,-77835.302597
2536.949939,-148.041188,5625.565159,-78141.740796
2536.952460,-3108.864956,7402.059420,-77528.864398
2536.954980,2664.741391,1184.329507,-76762.768900
2536.957501,740.205942,7550.100608,-78141.740796
2536.960022,888.247130,3849.070898,-78294.959896
2536.962543,-148.041188,12435.459826,-79367.493593
2536.965064,-444.123565,-3108.864956,-81665.780087
2536.967585,2960.823768,10214.842000,-75690.235202
2536.970105,-148.041188,3701.029710,-78141.740796
2536.972626,3552.988522,3108.864956,-76149.892501
2536.975147,-740.205942,9030.512492,-77069.207099
2536.977668,1332.370696,-1776.494261,-79827.150892
2536.980189,2368.659014,6809.894666,-76915.987999
2536.982710,-740.205942,7254.018232,-78601.398095
2536.985230,-1184.329507,1480.411884,-78294.959896
2536.987751,592.164754,-6809.894666,-77682.083497
2536.990272,1924.535449,3256.906145,-77222.426198
2536.992793,-2368.659014,-1036.288319,-79980.369991
2536.995314,1776.494261,-3849.070898,-79061.055394
2536.997835,296.082377,3256.906145,-76456.330700
2537.000355,1184.329507,-2812.782580,-79367.493593
2537.002876,-2220.617826,-9770.718434,-80440.027290
2537.005397,2072.576638,-6217.729913,-77528.864398
2537.007918,740.205942,10955.047942,-75537.016103
2537.010439,148.041188,-1480.411884,-79520.712692
2537.012960,0.000000,-6069.688724,-80746.465489
2537.015480,296.082377,1480.411884,-77222.426198
2537.018001,1776.494261,-5329.482782,-77528.864398
2537.020522,-2220.617826,-444.123565,-75537.016103
2537.023043,1036.288319,2516.700203,-77835.302597
2537.025592,0.000000,-8438.347739,-79827.150892
2537.028141,3701.029710,1036.288319,-77528.864398
2537.030690,-592.164754,148.041188,-78294.959896
2537.033239,-444.123565,4737.318029,-77069.207099
2537.035787,-296.082377,-7254.018232,-79061.055394
2537.038336,1036.288319,-2072.576638,-76609.549800
2537.040885,1628.453072,5477.523971,-75690.235202
2537.043434,592.164754,-2368.659014,-79980.369991
2537.045983,-296.082377,-8290.306550,-81512.560987
2537.048532,-1480.411884,3108.864956,-75843.454302
2537.051081,-296.082377,-5477.523971,-80133.589091
2537.053630,6957.935855,-14211.954086,-77682.083497
2537.056179,-2368.659014,1480.411884,-75843.454302
2537.058728,-888.247130,6661.853478,-76609.549800
2537.061277,-740.205942,-3404.947333,-81052.903688
2537.063826,0.000000,-888.247130,-80746.465489
2537.066374,4589.276840,-1480.411884,-77069.207099
2537.068923,-1776.494261,-8586.388927,-76456.330700
2537.071472,2072.576638,3552.988522,-75843.454302
2537.074021,-3404.947333,-7254.018232,-81206.122788
2537.076570,3108.864956,444.123565,-79367.493593
2537.079119,-296.082377,7402.059420,-77528.864398
2537.081668,1184.329507,-4737.318029,-79827.150892
2537.084217,148.041188,5477.523971,-75230.577904
2537.086766,444.123565,11399.171507,-75077.358804
2537.089315,-592.164754,6513.812290,-78141.740796
2537.091864,-444.123565,-4441.235652,-82278.656485
2537.094413,592.164754,-1184.329507,-79673.931792
2537.096961,2072.576638,12287.418637,-75077.358804
2537.099510,-740.205942,9030.512492,-76762.768900
2537.102059,-1628.453072,-148.041188,-79214.274493
2537.104608,1776.494261,4737.318029,-78141.740796
2537.107157,-1036.288319,-148.041188,-78141.740796
2537.109706,1480.411884,13471.748144,-74311.263306
2537.112255,-1924.535449,5773.606348,-78754.617194
2537.114804,2220.617826,-1628.453072,-79367.493593
2537.117353,444.123565,13471.748144,-76609.549800
2537.119902,-592.164754,-10807.006753,-81818.999186
2537.122451,-1776.494261,2960.823768,-75077.358804
2537.124999,444.123565,7698.141797,-75996.673402
2537.127567,-1628.453072,-1924.535449,-78141.740796
2537.130135,444.123565,3552.988522,-79214.274493
2537.132703,-1776.494261,3997.112087,-81512.560987
2537.135271,2368.659014,5477.523971,-76915.987999
2537.137839,148.041188,4293.194464,-77375.645298
2537.140407,-1480.411884,3997.112087,-77988.521696
2537.142974,1036.288319,-2960.823768,-77835.302597
2537.145542,-888.247130,13915.871710,-74617.701505
2537.148110,148.041188,19245.354492,-76456.330700
2537.150678,-592.164754,-3701.029710,-81512.560987
2537.153246,592.164754,5625.565159,-77835.302597
2537.155814,-1036.288319,5477.523971,-77682.083497
2537.158382,148.041188,3849.070898,-78141.740796
2537.160949,-2960.823768,2812.782580,-78907.836294
2537.163517,1776.494261,3997.112087,-77835.302597
2537.166085,1184.329507,9622.677246,-77682.083497
2537.168653,-4293.194464,1776.494261,-81206.122788
2537.171221,2220.617826,3256.906145,-76915.987999
2537.173789,-2220.617826,-2220.617826,-76456.330700
2537.176356,2812.782580,-444.123565,-76762.768900
2537.178924,-1036.288319,-1332.370696,-78601.398095
2537.181492,3997.112087,296.082377,-78754.617194
2537.184060,888.247130,3404.947333,-77375.645298
2537.186628,0.000000,-7994.224174,-80286.808190
2537.189196,-3108.864956,-4885.359217,-77069.207099
2537.191764,1184.329507,-5477.523971,-75537.016103
2537.194331,1184.329507,8734.430116,-74924.139704
2537.196899,-1776.494261,-10362.883188,-82891.532884
2537.199467,0.000000,2072.576638,-79061.055394
2537.202035,-1480.411884,5033.400406,-78754.617194
2537.204603,2368.659014,-6809.894666,-77988.521696
2537.207171,-3256.906145,2072.576638,-74770.920605
2537.209738,-1776.494261,-6365.771101,-77835.302597
2537.212306,-1480.411884,2368.659014,-78294.959896
2537.214874,-1776.494261,-6217.729913,-82125.437386
2537.217442,-1332.370696,1776.494261,-79827.150892
2537.220010,0.000000,2368.659014,-77528.864398
2537.222578,-1628.453072,3701.029710,-74464.482406
2537.225146,0.000000,-4441.235652,-77375.645298
2537.227713,1036.288319,-2664.741391,-77375.645298
2537.230291,-740.205942,1628.453072,-79673.931792
2537.232869,296.082377,-4145.153275,-79214.274493
2537.235447,-740.205942,-1036.288319,-77682.083497
2537.238025,-444.123565,-5033.400406,-77988.521696
2537.240602,0.000000,-3997.112087,-76609.549800
2537.243180,-1480.411884,-3404.947333,-76762.768900
2537.245758,888.247130,3701.029710,-76456.330700
2537.248336,-2220.617826,740.205942,-80286.808190
2537.250914,1036.288319,-9474.636058,-80899.684589
2537.253491,-296.082377,-2960.823768,-74617.701505
2537.256069,3256.906145,8734.430116,-73238.729609
2537.258647,-6069.688724,-5033.400406,-81206.122788
2537.261225,2812.782580,-10066.800811,-81512.560987
2537.263803,-1036.288319,13175.665768,-76762.768900
2537.266380,-296.082377,-2960.823768,-79980.369991
2537.268958,-2368.659014,11399.171507,-73851.606007
2537.271536,-444.123565,7994.224174,-78141.740796
2537.274114,2812.782580,1184.329507,-75690.235202
2537.276692,592.164754,148.041188,-79367.493593
2537.279269,-1924.535449,-1332.370696,-80133.589091
2537.281847,3849.070898,9770.718434,-76456.330700
2537.284425,888.247130,13027.624579,-78141.740796
2537.287003,-2516.700203,-1628.453072,-79367.493593
2537.289581,1776.494261,2812.782580,-76609.549800
2537.292158,-444.123565,296.082377,-77069.207099
2537.294736,1924.535449,13619.789333,-74770.920605
2537.297314,1036.288319,-148.041188,-80286.808190
2537.299892,-148.041188,11399.171507,-79214.274493
2537.302470,2812.782580,-4145.153275,-81052.903688
2537.305047,2516.700203,4589.276840,-75077.358804
2537.307625,-2072.576638,8734.430116,-75690.235202
2537.310203,1184.329507,296.082377,-76303.111601
2537.312781,-1036.288319,8142.265362,-74924.139704
2537.315359,148.041188,7254.018232,-83044.751983
2537.317936,2368.659014,-3552.988522,-81818.999186
2537.320514,2368.659014,9326.594869,-78141.740796
2537.323092,-148.041188,3701.029710,-78448.178995
2537.325670,-1776.494261,5181.441594,-74311.263306
2537.328248,-2664.741391,9178.553681,-77988.521696
2537.330826,592.164754,1924.535449,-77069.207099
2537.333410,-296.082377,12879.583391,-77528.864398
2537.335995,-1332.370696,2812.782580,-82125.437386
2537.338579,-444.123565,5329.482782,-76915.987999
2537.341164,888.247130,4589.276840,-79673.931792
2537.343748,296.082377,2812.782580,-77835.302597
2537.346333,-2072.576638,6957.935855,-77988.521696
2537.348917,1332.370696,296.082377,-79520.712692
2537.351502,-148.041188,11547.212695,-74464.482406
2537.354087,1184.329507,3404.947333,-81665.780087
2537.356671,-1628.453072,-6069.688724,-77835.302597
2537.359256,4293.194464,-148.041188,-76149.892501
2537.361840,-1776.494261,-1036.288319,-77835.302597
2537.364425,2516.700203,-6809.894666,-78141.740796
2537.367009,1480.411884,-2812.782580,-80286.808190
2537.369594,2516.700203,296.082377,-77835.302597
2537.372179,-2812.782580,-8290.306550,-79061.055394
2537.374763,1628.453072,-4293.194464,-77375.645298
2537.377348,-444.123565,8882.471304,-73545.167808
2537.379932,3108.864956,-8586.388927,-80133.589091
2537.382517,-2516.700203,-5033.400406,-79827.150892
2537.385101,-2072.576638,-888.247130,-79827.150892
2537.387686,444.123565,-1184.329507,-77682.083497
2537.390271,1332.370696,-4589.276840,-76456.330700
2537.392855,-1776.494261,1776.494261,-75843.454302
2537.395440,-2664.741391,-1776.494261,-79827.150892
2537.398024,2072.576638,-7254.018232,-79673.931792
2537.400609,2072.576638,4885.359217,-79367.493593
2537.403193,-1036.288319,4737.318029,-78294.959896
2537.405778,-296.082377,-5625.565159,-78141.740796
2537.408362,-1184.329507,-4589.276840,-76303.111601
2537.410947,1776.494261,-1628.453072,-76915.987999
2537.413532,-444.123565,-2220.617826,-79673.931792
2537.416121,888.247130,2664.741391,-78754.617194
2537.418710,3849.070898,-11103.089130,-79980.369991
2537.421298,1332.370696,-2072.576638,-77528.864398
2537.423887,-3404.947333,-2516.700203,-77682.083497
2537.426475,1924.535449,-2812.782580,-77528.864398
2537.429064,296.082377,-2664.741391,-76456.330700
2537.431653,1332.370696,2516.700203,-78294.959896
2537.434241,-1924.535449,-8734.430116,-81052.903688
2537.436830,2812.782580,-592.164754,-77835.302597
2537.439418,-1628.453072,4441.235652,-77375.645298
2537.442007,296.082377,-5477.523971,-80133.589091
2537.444596,1184.329507,888.247130,-77375.645298
2537.447184,0.000000,-740.205942,-79367.493593
2537.449773,-592.164754,11991.336260,-76609.549800
2537.452362,2516.700203,15840.407159,-75537.016103
2537.454950,-3701.029710,-10066.800811,-82738.313784
2537.457539,2960.823768,4293.194464,-75843.454302
2537.460127,-2812.782580,7550.100608,-77682.083497
2537.462716,-1184.329507,2368.659014,-79520.712692
2537.465305,1480.411884,7846.182985,-78141.740796
2537.467893,-1776.494261,1184.329507,-80593.246390
2537.470482,1332.370696,9030.512492,-77222.426198
2537.473071,-2368.659014,-1480.411884,-77988.521696
2537.475659,-888.247130,14804.118840,-74617.701505
2537.478248,3108.864956,2516.700203,-78141.740796
2537.480836,-740.205942,6217.729913,-80133.589091
2537.483425,2072.576638,-592.164754,-82431.875585
2537.486014,-1480.411884,4441.235652,-76915.987999
2537.488602,-740.205942,10510.924376,-75077.358804
2537.491191,-1480.411884,-3404.947333,-77069.207099
2537.493780,888.247130,-1924.535449,-77528.864398
2537.496368,-1184.329507,5773.606348,-77375.645298
2537.498957,888.247130,9918.759623,-79061.055394
2537.501545,-1480.411884,8290.306550,-79061.055394
2537.504134,-888.247130,444.123565,-80899.684589
2537.506723,1332.370696,10658.965565,-74158.044206
2537.509311,-740.205942,3701.029710,-76149.892501
2537.511900,1480.411884,7105.977043,-76609.549800
2537.514488,-1332.370696,4589.276840,-79367.493593
2537.517077,296.082377,4589.276840,-80746.465489
2537.519667,-740.205942,15692.365970,-79214.274493
2537.522257,444.123565,-10955.047942,-82431.875585
2537.524847,2664.741391,6809.894666,-70940.443115
2537.527437,-3256.906145,10510.924376,-77375.645298
2537.530027,740.205942,-4441.235652,-81359.341888
2537.532617,-1184.329507,4441.235652,-77069.207099
2537.535207,-1776.494261,-1036.288319,-81512.560987
2537.537797,-888.247130,-6069.688724,-77835.302597
2537.540387,-1332.370696,-888.247130,-76609.549800
2537.542977,-1332.370696,3552.988522,-78294.959896
2537.545567,1184.329507,-9770.718434,-78907.836294
2537.548157,-1628.453072,-6661.853478,-79061.055394
2537.550747,1332.370696,5181.441594,-75537.016103
2537.553337,-1480.411884,-4293.194464,-78601.398095
2537.555927,1036.288319,-148.041188,-77988.521696
2537.558517,1924.535449,5033.400406,-76303.111601
2537.561107,-148.041188,-10955.047942,-81818.999186
2537.563697,2220.617826,740.205942,-76149.892501
2537.566286,-2812.782580,-1036.288319,-78141.740796
2537.568876,2664.741391,-3256.906145,-77682.083497
2537.571466,-296.082377,1332.370696,-77988.521696
2537.574056,-740.205942,-5181.441594,-79827.150892
2537.576646,3256.906145,592.164754,-77222.426198
2537.579236,-1924.535449,4441.235652,-80133.589091
2537.581826,-1628.453072,-296.082377,-78601.398095
2537.584416,-296.082377,-4885.359217,-78294.959896
2537.587006,-1924.535449,-3108.864956,-76915.987999
2537.589596,-2960.823768,-3552.988522,-77375.645298
2537.592186,296.082377,-4737.318029,-77988.521696
2537.594776,1924.535449,-2368.659014,-78294.959896
2537.597366,-888.247130,0.000000,-79980.369991
2537.599956,148.041188,-8734.430116,-81052.903688
2537.602546,-148.041188,2960.823768,-76149.892501
2537.605136,-592.164754,-6957.935855,-77528.864398
2537.607726,444.123565,-7994.224174,-75843.454302
2537.610316,592.164754,9030.512492,-75537.016103
2537.612906,-5773.606348,-4441.235652,-82431.875585
2537.615496,3701.029710,-3997.112087,-80593.246390
2537.618086,-1924.535449,7994.224174,-78754.617194
2537.620676,2368.659014,-9918.759623,-79367.493593
2537.623192,-2368.659014,12879.583391,-70940.443115
2537.625709,-3256.906145,9326.594869,-78601.398095
2537.628226,888.247130,4885.359217,-77528.864398
2537.630742,-888.247130,1480.411884,-81052.903688
2537.633259,-740.205942,1924.535449,-78754.617194
2537.635776,1628.453072,12139.377449,-75690.235202
2537.638293,-444.123565,5181.441594,-79214.274493
2537.640809,-1924.535449,-1776.494261,-79673.931792
2537.643326,2960.823768,1628.453072,-78141.740796
2537.645843,-3256.906145,11399.171507,-77222.426198
2537.648359,2960.823768,4145.153275,-77069.207099
2537.650876,-1776.494261,8438.347739,-76915.987999
2537.653393,592.164754,2072.576638,-78601.398095
2537.655909,592.164754,296.082377,-77835.302597
2537.658426,-444.123565,6365.771101,-79673.931792
2537.660943,-2368.659014,3256.906145,-77069.207099
2537.663459,1924.535449,9326.594869,-78141.740796
2537.665976,-2960.823768,1480.411884,-79061.055394
2537.668493,3256.906145,-7402.059420,-78907.836294
2537.671009,4589.276840,12879.583391,-74770.920605
2537.673526,-4145.153275,8142.265362,-79980.369991
2537.676043,-2072.576638,5329.482782,-78448.178995
2537.678560,-888.247130,10066.800811,-78601.398095
2537.681076,148.041188,888.247130,-78601.398095
2537.683593,740.205942,7550.100608,-74158.044206
2537.686110,-592.164754,2072.576638,-78294.959896
2537.688626,7402.059420,16728.654289,-76762.768900
2537.691143,296.082377,-2072.576638,-83197.971083
2537.693660,-2960.823768,-7550.100608,-82738.313784
2537.696176,4145.153275,11251.130318,-74311.263306
2537.698693,-2368.659014,1332.370696,-76762.768900
2537.701210,148.041188,148.041188,-75230.577904
2537.703726,888.247130,6957.935855,-76762.768900
2537.706243,1628.453072,-9178.553681,-82585.094684
2537.708760,-592.164754,-1332.370696,-79673.931792
2537.711276,5625.565159,4145.153275,-77682.083497
2537.713793,-2072.576638,1480.411884,-75537.016103
2537.716310,-296.082377,-6365.771101,-78907.836294
2537.718826,-2664.741391,-9622.677246,-78907.836294
2537.721343,740.205942,-2664.741391,-77988.521696
2537.723879,0.000000,12583.501014,-76149.892501
2537.726415,-3552.988522,-11251.130318,-81512.560987
2537.728950,2220.617826,8142.265362,-77222.426198
2537.731486,740.205942,-11399.171507,-81052.903688
2537.734022,3108.864956,-6365.771101,-76303.111601
2537.736558,-444.123565,3849.070898,-74924.139704
2537.739093,-2812.782580,5773.606348,-76149.892501
2537.741629,-1036.288319,-14656.077652,-81972.218286
2537.744165,3108.864956,-3552.988522,-78601.398095
2537.746701,2664.741391,1776.494261,-76609.549800
2537.749236,-2220.617826,8290.306550,-77222.426198
2537.751772,-1776.494261,-1184.329507,-79061.055394
2537.754308,3108.864956,-8882.471304,-77682.083497
2537.756844,1776.494261,740.205942,-76762.768900
2537.759380,-1036.288319,-13915.871710,-79827.150892
2537.761915,1776.494261,-2516.700203,-77069.207099
2537.764451,740.205942,5773.606348,-76609.549800
2537.766987,-2664.741391,-9326.594869,-82125.437386
2537.769523,592.164754,-4589.276840,-78601.398095
2537.772058,1480.411884,5033.400406,-75537.016103
2537.774594,1332.370696,-6217.729913,-78294.959896
2537.777130,1480.411884,-5033.400406,-76762.768900
2537.779666,-1924.535449,7105.977043,-77222.426198
2537.782201,3108.864956,-6957.935855,-80440.027290
2537.784737,592.164754,1036.288319,-78141.740796
2537.787273,2368.659014,296.082377,-79214.274493
2537.789809,1480.411884,11991.336260,-75996.673402
2537.792344,148.041188,6365.771101,-77222.426198
2537.794880,-1036.288319,6661.853478,-76149.892501
2537.797416,-148.041188,1036.288319,-79214.274493
2537.799952,-1924.535449,1628.453072,-80440.027290
2537.802487,1628.453072,7846.182985,-77528.864398
2537.805023,592.164754,12583.501014,-75996.673402
2537.807559,-1628.453072,296.082377,-81052.903688
2537.810095,1036.288319,-592.164754,-79673.931792
2537.812630,-296.082377,6365.771101,-76456.330700
2537.815166,1184.329507,10955.047942,-74770.920605
2537.817702,-740.205942,3849.070898,-76915.987999
2537.820238,-1628.453072,6217.729913,-79980.369991
2537.822773,1776.494261,-2664.741391,-81665.780087
2537.825324,1776.494261,296.082377,-80286.808190
2537.827875,-1480.411884,6809.894666,-75690.235202
2537.830425,444.123565,6661.853478,-74770.920605
2537.832976,-3404.947333,148.041188,-78601.398095
2537.835527,2072.576638,-4589.276840,-80746.465489
2537.838077,1332.370696,14804.118840,-76609.549800
2537.840628,148.041188,11103.089130,-80440.027290
2537.843179,-592.164754,6957.935855,-79520.712692
2537.845729,-1184.329507,6661.853478,-77835.302597
2537.848280,592.164754,1628.453072,-76609.549800
2537.850831,740.205942,8142.265362,-75537.016103
2537.853381,444.123565,6365.771101,-79061.055394
2537.855932,1332.370696,4885.359217,-80133.589091
2537.858482,148.041188,6365.771101,-80286.808190
2537.861033,-148.041188,-2960.823768,-80133.589091
2537.863584,3997.112087,3256.906145,-75690.235202
2537.866134,0.000000,6217.729913,-75230.577904
2537.868685,-1924.535449,-2812.782580,-78907.836294
2537.871236,4293.194464,-5033.400406,-78141.740796
2537.873786,-740.205942,2072.576638,-80286.808190
2537.876337,-1332.370696,3997.112087,-78294.959896
2537.878888,1628.453072,-9622.677246,-77988.521696
2537.881438,-740.205942,-8734.430116,-76915.987999
2537.883989,1036.288319,4737.318029,-75690.235202
2537.886540,-740.205942,-9622.677246,-79673.931792
2537.889090,148.041188,6661.853478,-76915.987999
2537.891641,3256.906145,-3849.070898,-79367.493593
2537.894192,-1184.329507,-7550.100608,-78448.178995
2537.896742,-1036.288319,2516.700203,-78448.178995
2537.899293,2072.576638,-9178.553681,-78601.398095
2537.901843,2664.741391,3108.864956,-75537.016103
2537.904394,-1776.494261,-740.205942,-79061.055394
2537.906945,-1184.329507,-4589.276840,-80746.465489
2537.909495,592.164754,2220.617826,-78907.836294
2537.912046,740.205942,592.164754,-78294.959896
2537.914597,0.000000,-1332.370696,-77528.864398
2537.917147,-3552.988522,-3552.988522,-78448.178995
2537.919698,740.205942,-1036.288319,-75537.016103
2537.922249,148.041188,1036.288319,-78754.617194
2537.924799,-3849.070898,-14656.077652,-82125.437386
2537.927360,2664.741391,-2664.741391,-75996.673402
2537.929920,-296.082377,5625.565159,-77222.426198
2537.932481,-1628.453072,-11103.089130,-79827.150892
2537.935041,740.205942,-8438.347739,-78294.959896
2537.937601,-2220.617826,3997.112087,-78141.740796
2537.940162,1184.329507,-6957.935855,-77988.521696
2537.942722,-1184.329507,3404.947333,-76149.892501
2537.945283,-148.041188,-1184.329507,-79827.150892
2537.947843,296.082377,-1628.453072,-77835.302597
2537.950404,1332.370696,2220.617826,-77835.302597
2537.952964,-2220.617826,9474.636058,-77375.645298
2537.955524,4441.235652,15396.283594,-77222.426198
2537.958085,-592.164754,-8882.471304,-81512.560987
2537.960645,1924.535449,8438.347739,-75383.797003
2537.963206,-3256.906145,9326.594869,-75537.016103
2537.965766,-2368.659014,11251.130318,-79980.369991
2537.968327,-296.082377,3552.988522,-79367.493593
2537.970887,1480.411884,-2368.659014,-80746.465489
2537.973448,0.000000,10807.006753,-75537.016103
2537.976008,0.000000,3256.906145,-77682.083497
2537.978568,-296.082377,5477.523971,-76149.892501
2537.981129,1628.453072,6513.812290,-77222.426198
2537.983689,-740.205942,2812.782580,-80133.589091
2537.986250,-1776.494261,2812.782580,-79367.493593
2537.988810,444.123565,5477.523971,-77375.645298
2537.991371,1628.453072,1924.535449,-77375.645298
2537.993931,592.164754,1480.411884,-77222.426198
2537.996491,-1480.411884,2812.782580,-78601.398095
2537.999052,-444.123565,9326.594869,-77375.645298
2538.001612,444.123565,8438.347739,-79214.274493
2538.004173,-592.164754,10214.842000,-79061.055394
2538.006733,1036.288319,7846.182985,-78754.617194
2538.009294,2516.700203,6957.935855,-75690.235202
2538.011854,2516.700203,1036.288319,-76762.768900
2538.014415,1184.329507,6957.935855,-77069.207099
2538.016975,0.000000,7846.182985,-79673.931792
2538.019535,1480.411884,888.247130,-81359.341888
2538.022096,-1036.288319,12139.377449,-77835.302597
2538.024656,-592.164754,-1776.494261,-79061.055394
2538.027217,2220.617826,2664.741391,-74617.701505
2538.029785,-2664.741391,-2516.700203,-78141.740796
2538.032352,2812.782580,-8438.347739,-77069.207099
2538.034920,-740.205942,8290.306550,-77375.645298
2538.037488,444.123565,-5329.482782,-82738.313784
2538.040056,-296.082377,-4589.276840,-77375.645298
2538.042624,1184.329507,-3108.864956,-76609.549800
2538.045192,444.123565,-2664.741391,-76149.892501
2538.047759,-592.164754,-5921.647536,-75230.577904
2538.050327,-296.082377,1480.411884,-79827.150892
2538.052895,592.164754,-7402.059420,-78294.959896
2538.055463,-148.041188,-1036.288319,-79061.055394
2538.058031,-2072.576638,888.247130,-80440.027290
2538.060599,1924.535449,-11103.089130,-76609.549800
2538.063166,148.041188,15248.242405,-74770.920605
2538.065734,-4293.194464,-13619.789333,-81512.560987
2538.068302,592.164754,592.164754,-77528.864398
2538.070870,2220.617826,2368.659014,-80286.808190
2538.073438,296.082377,444.123565,-77222.426198
2538.076006,-888.247130,-2664.741391,-77682.083497
2538.078574,1184.329507,-2664.741391,-77835.302597
2538.081141,0.000000,-2812.782580,-76762.768900
2538.083709,-148.041188,-6365.771101,-79980.369991
2538.086277,-740.205942,-8290.306550,-78141.740796
2538.088845,592.164754,4737.318029,-76456.330700
2538.091413,-2812.782580,-4737.318029,-78754.617194
2538.093981,-740.205942,-2516.700203,-77069.207099
2538.096548,2220.617826,-5773.606348,-78754.617194
2538.099116,-888.247130,-4441.235652,-77682.083497
2538.101684,148.041188,5625.565159,-77069.207099
2538.104252,-1628.453072,-592.164754,-80286.808190
2538.106820,444.123565,-1776.494261,-78907.836294
2538.109388,296.082377,592.164754,-79061.055394
2538.111955,-2072.576638,7846.182985,-77528.864398
2538.114523,2220.617826,11251.130318,-75996.673402
2538.117091,-1332.370696,-3256.906145,-79061.055394
2538.119659,-592.164754,7994.224174,-77069.207099
2538.122227,-1924.535449,-888.247130,-82125.437386
2538.124795,296.082377,3552.988522,-80593.246390
2538.127363,1924.535449,12731.542202,-75537.016103
2538.129930,-2812.782580,2516.700203,-80899.684589
2538.132444,1480.411884,-1332.370696,-77528.864398
2538.134958,1480.411884,5329.482782,-76762.768900
2538.137472,1332.370696,10066.800811,-75383.797003
2538.139985,-3849.070898,7254.018232,-77835.302597
2538.142499,1332.370696,-2516.700203,-81972.218286
2538.145013,2812.782580,5921.647536,-78294.959896
2538.147526,-888.247130,6365.771101,-79214.274493
2538.150040,-2516.700203,3108.864956,-77682.083497
2538.152554,296.082377,740.205942,-75230.577904
2538.155067,-444.123565,3256.906145,-77375.645298
2538.157581,2220.617826,6809.894666,-78448.178995
2538.160095,-1332.370696,12879.583391,-80746.465489
2538.162609,444.123565,5477.523971,-82125.437386
2538.165122,1332.370696,10955.047942,-75690.235202
2538.167636,-2812.782580,148.041188,-77375.645298
2538.170150,-888.247130,13027.624579,-74158.044206
2538.172663,-888.247130,3256.906145,-78601.398095
2538.175177,740.205942,-592.164754,-79827.150892
2538.177691,1776.494261,10807.006753,-77988.521696
2538.180205,-1628.453072,2220.617826,-80286.808190
2538.182718,0.000000,4441.235652,-76762.768900
2538.185232,592.164754,3701.029710,-75383.797003
2538.187746,1036.288319,-6069.688724,-77988.521696
2538.190259,-592.164754,-5625.565159,-77835.302597
2538.192773,3552.988522,2368.659014,-77682.083497
2538.195287,-2220.617826,3256.906145,-78141.740796
2538.197801,-1332.370696,-3256.906145,-81206.122788
2538.200314,-888.247130,-17024.736666,-80440.027290
2538.202828,3108.864956,1480.411884,-73238.729609
2538.205342,2072.576638,4589.276840,-73698.386908
2538.207855,-2516.700203,-5329.482782,-79214.274493
2538.210369,3108.864956,740.205942,-80899.684589
2538.212883,740.205942,-9474.636058,-80440.027290
2538.215396,148.041188,9030.512492,-76456.330700
2538.217910,-4293.194464,-10955.047942,-79980.369991
2538.220424,2220.617826,-592.164754,-74464.482406
2538.222938,-3552.988522,9474.636058,-76149.892501
2538.225451,-2664.741391,-5329.482782,-83657.628382
2538.227965,3404.947333,-7698.141797,-80593.246390
2538.230479,592.164754,10510.924376,-76609.549800
2538.233011,-2072.576638,7550.100608,-75230.577904
2538.235543,-1480.411884,-18061.024985,-78601.398095
2538.238075,-148.041188,-444.123565,-75996.673402
2538.240607,-592.164754,-5773.606348,-80899.684589
2538.243139,-148.041188,-5921.647536,-80593.246390
2538.245670,-1480.411884,7846.182985,-78294.959896
2538.248202,2664.741391,-17024.736666,-79980.369991
2538.250734,-1628.453072,8142.265362,-73085.510509
2538.253266,-1036.288319,-11695.253884,-81818.999186
2538.255798,1776.494261,2072.576638,-73698.386908
2538.258330,2664.741391,8142.265362,-76609.549800
2538.260862,1924.535449,-5033.400406,-82585.094684
2538.263394,2220.617826,1036.288319,-76303.111601
2538.265926,-2220.617826,14656.077652,-77835.302597
2538.268458,3108.864956,17024.736666,-74464.482406
2538.270990,-2072.576638,-11991.336260,-81206.122788
2538.273522,3701.029710,4737.318029,-76915.987999
2538.276054,-1036.288319,10955.047942,-74617.701505
2538.278586,-1924.535449,12139.377449,-79520.712692
2538.281118,-296.082377,3108.864956,-80440.027290
2538.283650,1480.411884,2368.659014,-78141.740796
2538.286182,592.164754,5773.606348,-77835.302597
2538.288714,-1184.329507,9918.759623,-74464.482406
2538.291246,-1184.329507,3108.864956,-77682.083497
2538.293778,2220.617826,4737.318029,-79061.055394
2538.296310,444.123565,3108.864956,-80440.027290
2538.298842,-2072.576638,2664.741391,-80440.027290
2538.301374,0.000000,6217.729913,-77682.083497
2538.303906,1332.370696,-1480.411884,-77375.645298
2538.306438,296.082377,2812.782580,-75383.797003
2538.308969,-888.247130,6661.853478,-77222.426198
2538.311501,444.123565,3552.988522,-81052.903688
2538.314033,1924.535449,14952.160028,-78601.398095
2538.316565,-444.123565,7698.141797,-78907.836294
2538.319097,888.247130,8734.430116,-76915.987999
2538.321629,2812.782580,1036.288319,-76762.768900
2538.324161,1924.535449,-1184.329507,-78294.959896
2538.326693,-148.041188,10362.883188,-77682.083497
2538.329225,-3108.864956,888.247130,-83044.751983
2538.331757,4589.276840,7402.059420,-79214.274493
2538.334304,-1480.411884,8882.471304,-76609.549800
2538.336850,888.247130,-8586.388927,-78448.178995
2538.339397,2220.617826,-888.247130,-73545.167808
2538.341944,-6957.935855,1924.535449,-78754.617194
2538.344490,1184.329507,-1184.329507,-80440.027290
2538.347037,1184.329507,-2220.617826,-79520.712692
2538.349584,2072.576638,-3849.070898,-81665.780087
2538.352131,-2664.741391,-3108.864956,-76149.892501
2538.354677,-1628.453072,-7105.977043,-76762.768900
2538.357224,1480.411884,-296.082377,-73851.606007
2538.359771,-296.082377,-2664.741391,-76762.768900
2538.362317,-1628.453072,-1036.288319,-81665.780087
2538.364864,-3256.906145,-6809.894666,-81206.122788
2538.367411,592.164754,-1184.329507,-77988.521696
2538.369957,1184.329507,148.041188,-75843.454302
2538.372504,444.123565,3108.864956,-75230.577904
2538.375051,148.041188,-3552.988522,-79827.150892
2538.377597,2812.782580,148.041188,-80440.027290
2538.380144,-888.247130,-3997.112087,-79214.274493
2538.382691,1184.329507,-3404.947333,-77528.864398
2538.385237,-2812.782580,1036.288319,-75230.577904
2538.387784,444.123565,-6661.853478,-77988.521696
2538.390331,2368.659014,-9770.718434,-78448.178995
2538.392877,148.041188,-1776.494261,-79061.055394
2538.395424,592.164754,888.247130,-79520.712692
2538.397971,1480.411884,-7402.059420,-79061.055394
2538.400517,148.041188,-592.164754,-77222.426198
2538.403064,-148.041188,-6069.688724,-78141.740796
2538.405611,-1036.288319,-3849.070898,-77069.207099
2538.408157,592.164754,4441.235652,-78448.178995
2538.410704,148.041188,-1776.494261,-80746.465489
2538.413251,296.082377,2516.700203,-78754.617194
2538.415797,-3256.906145,14952.160028,-76915.987999
2538.418344,1036.288319,7698.141797,-77682.083497
2538.420891,-740.205942,-4293.194464,-78754.617194
2538.423437,2812.782580,3701.029710,-76609.549800
2538.425984,-296.082377,10066.800811,-77528.864398
2538.428531,148.041188,8882.471304,-81665.780087
2538.431077,740.205942,3108.864956,-80286.808190
2538.433624,-444.123565,10658.965565,-78601.398095
2538.436178,-592.164754,-2664.741391,-78907.836294
2538.438735,1036.288319,7402.059420,-72472.634111
2538.441291,-1924.535449,9622.677246,-75077.358804
2538.443848,-2516.700203,3404.947333,-78294.959896
2538.446404,1184.329507,4441.235652,-81206.122788
2538.448961,-1776.494261,6513.812290,-81818.999186
2538.451518,1924.535449,-740.205942,-77988.521696
2538.454074,592.164754,2664.741391,-74311.263306
2538.456631,-1480.411884,8142.265362,-74311.263306
2538.459187,-444.123565,-1924.535449,-78448.178995
2538.461744,1480.411884,18357.107362,-77069.207099
2538.464300,-1480.411884,8438.347739,-81972.218286
2538.466857,1628.453072,9622.677246,-77682.083497
2538.469414,-1628.453072,6661.853478,-77682.083497
2538.471970,444.123565,740.205942,-74924.139704
2538.474527,-2960.823768,10214.842000,-76609.549800
2538.477083,-1924.535449,-3701.029710,-83351.190182
2538.479640,-888.247130,10807.006753,-76915.987999
2538.482196,3552.988522,4589.276840,-80746.465489
2538.484753,0.000000,2516.700203,-77682.083497
2538.487309,-888.247130,-6069.688724,-77222.426198
2538.489866,3849.070898,-13915.871710,-76762.768900
2538.492423,2516.700203,11843.295072,-71400.100414
2538.494979,-5921.647536,-3701.029710,-85189.819378
2538.497536,3701.029710,-10066.800811,-82431.875585
2538.500092,1332.370696,8882.471304,-76456.330700
2538.502649,-296.082377,-592.164754,-76456.330700
2538.505205,-1036.288319,-12583.501014,-73851.606007
2538.507762,148.041188,1776.494261,-74924.139704
2538.510319,1924.535449,-3404.947333,-79827.150892
2538.512875,2812.782580,444.123565,-81206.122788
2538.515432,-6365.771101,-5477.523971,-85343.038477
2538.517988,4293.194464,3701.029710,-74617.701505
2538.520545,-148.041188,-2072.576638,-74770.920605
2538.523101,-3997.112087,-2812.782580,-76456.330700
2538.525658,2072.576638,-296.082377,-75843.454302
2538.528214,1776.494261,148.041188,-79827.150892
2538.530771,592.164754,-4737.318029,-80746.465489
2538.533328,0.000000,2368.659014,-76915.987999
2538.535884,-1332.370696,-7402.059420,-78294.959896
2538.538449,2072.576638,-5921.647536,-73238.729609
2538.541013,1924.535449,-6809.894666,-77069.207099
2538.543577,-2516.700203,-7105.977043,-80746.465489
2538.546142,148.041188,-296.082377,-77988.521696
2538.548706,-444.123565,1036.288319,-78601.398095
2538.551270,-296.082377,-10658.965565,-78754.617194
2538.553835,-592.164754,5773.606348,-74617.701505
2538.556399,-444.123565,-6513.812290,-79827.150892
2538.558963,1184.329507,-5329.482782,-79673.931792
2538.561528,4145.153275,6957.935855,-77069.207099
2538.564092,-2516.700203,14656.077652,-78448.178995
2538.566656,2664.741391,10807.006753,-77069.207099
2538.569221,-1036.288319,-10807.006753,-80286.808190
2538.571785,-296.082377,7846.182985,-73698.386908
2538.574349,-1628.453072,7698.141797,-77069.207099
2538.576914,0.000000,8438.347739,-80746.465489
2538.579478,3404.947333,9770.718434,-79520.712692
2538.582043,-888.247130,5033.400406,-81665.780087
2538.584607,-1332.370696,-3404.947333,-78141.740796
2538.587171,-1332.370696,8290.306550,-72319.415011
2538.589736,1184.329507,10362.883188,-73851.606007
2538.592300,-1776.494261,3256.906145,-79520.712692
2538.594864,296.082377,2960.823768,-83197.971083
2538.597429,444.123565,1036.288319,-83044.751983
2538.599993,1332.370696,5477.523971,-76456.330700
2538.602557,-3849.070898,4885.359217,-75077.358804
2538.605122,296.082377,-2960.823768,-75230.577904
2538.607686,-888.247130,10658.965565,-74617.701505
2538.610250,-1036.288319,8882.471304,-81206.122788
2538.612815,-2516.700203,10066.800811,-80746.465489
2538.615379,-1184.329507,11991.336260,-79367.493593
2538.617943,3997.112087,-148.041188,-76915.987999
2538.620508,-2368.659014,4737.318029,-73238.729609
2538.623072,0.000000,-148.041188,-77988.521696
2538.625637,0.000000,9770.718434,-76149.892501
2538.628201,592.164754,3404.947333,-83197.971083
2538.630765,-1776.494261,5033.400406,-80133.589091
2538.633330,592.164754,-148.041188,-76915.987999
2538.635894,1776.494261,-1924.535449,-74617.701505
2538.638458,-2516.700203,-2812.782580,-75537.016103
2538.641029,1628.453072,-3552.988522,-79980.369991
2538.643599,-148.041188,444.123565,-79673.931792
2538.646169,148.041188,-2072.576638,-81512.560987
2538.648740,-3256.906145,-5033.400406,-78907.836294
2538.651310,592.164754,-4737.318029,-75843.454302
2538.653880,1924.535449,-4885.359217,-74158.044206
2538.656451,-444.123565,-4441.235652,-75690.235202
2538.659021,-3256.906145,1184.329507,-79827.150892
2538.661591,3404.947333,592.164754,-83197.971083
2538.664162,888.247130,-10807.006753,-81512.560987
2538.666732,2516.700203,148.041188,-75690.235202
2538.669302,-444.123565,0.000000,-73698.386908
2538.671873,-3256.906145,-5625.565159,-75843.454302
2538.674443,1036.288319,3849.070898,-77375.645298
2538.677014,-1924.535449,-2220.617826,-82431.875585
2538.679584,2664.741391,-5773.606348,-81818.999186
2538.682154,-1628.453072,3256.906145,-76149.892501
2538.684725,296.082377,-13323.706956,-78448.178995
2538.687295,592.164754,-3997.112087,-73391.948708
2538.689865,-444.123565,-4441.235652,-79980.369991
2538.692436,-3552.988522,-10214.842000,-82891.532884
2538.695006,1776.494261,-3552.988522,-78448.178995
2538.697576,-1332.370696,6661.853478,-75537.016103
2538.700147,2516.700203,-7254.018232,-78141.740796
2538.702717,740.205942,-740.205942,-74770.920605
2538.705287,-740.205942,-1332.370696,-81052.903688
2538.707858,-148.041188,9326.594869,-77988.521696
2538.710428,-1628.453072,12879.583391,-78141.740796
2538.712998,-888.247130,10955.047942,-78448.178995
2538.715569,-888.247130,-4885.359217,-79214.274493
2538.718139,3997.112087,-2960.823768,-77528.864398
2538.720710,-2368.659014,10510.924376,-74004.825107
2538.723280,-888.247130,19689.478057,-76609.549800
2538.725850,-1628.453072,1332.370696,-84576.942979
2538.728421,-148.041188,2960.823768,-80133.589091
2538.730991,-1036.288319,4293.194464,-77222.426198
2538.733561,888.247130,1776.494261,-73698.386908
2538.736132,2368.659014,12435.459826,-71553.319513
2538.738702,592.164754,-2368.659014,-81512.560987
2538.741272,1332.370696,148.041188,-81665.780087
2538.743847,-2072.576638,6661.853478,-81665.780087
2538.746422,0.000000,5773.606348,-78141.740796
2538.748998,-296.082377,3849.070898,-73238.729609
2538.751573,592.164754,2812.782580,-75230.577904
2538.754148,0.000000,8734.430116,-77835.302597
2538.756723,1924.535449,10807.006753,-80899.684589
2538.759298,-888.247130,9918.759623,-82431.875585
2538.761873,1480.411884,10658.965565,-76456.330700
2538.764448,-888.247130,7402.059420,-76609.549800
2538.767023,296.082377,-2072.576638,-75537.016103
2538.769598,-296.082377,7402.059420,-75230.577904
2538.772173,592.164754,1924.535449,-80593.246390
2538.774748,-1480.411884,6069.688724,-79520.712692
2538.777323,-3256.906145,-740.205942,-79673.931792
2538.779898,3108.864956,-5033.400406,-76149.892501
2538.782473,-2072.576638,888.247130,-74311.263306
2538.785049,-592.164754,-6957.935855,-78448.178995
2538.787624,1480.411884,-2960.823768,-77835.302597
2538.790199,-888.247130,3256.906145,-80133.589091
2538.792774,-1924.535449,-12583.501014,-81665.780087
2538.795349,296.082377,4293.194464,-74158.044206
2538.797924,1628.453072,-9178.553681,-76609.549800
2538.800499,-592.164754,-1924.535449,-72932.291410
2538.803074,-1480.411884,1332.370696,-77682.083497
2538.805649,-444.123565,-4441.235652,-84117.285680
2538.808224,3256.906145,2516.700203,-78141.740796
2538.810799,-444.123565,1184.329507,-78907.836294
2538.813374,148.041188,-4145.153275,-76762.768900
2538.815949,592.164754,-1776.494261,-75843.454302
2538.818525,-148.041188,-5181.441594,-78907.836294
2538.821100,-740.205942,-888.247130,-77835.302597
2538.823675,-296.082377,-3256.906145,-81359.341888
2538.826205,-1184.329507,-7402.059420,-79520.712692
2538.828735,2220.617826,-2516.700203,-75230.577904
2538.831265,-888.247130,2664.741391,-74770.920605
2538.833795,-592.164754,-17468.860231,-79827.150892
2538.836325,-888.247130,888.247130,-77682.083497
2538.838855,-148.041188,-6217.729913,-81818.999186
2538.841386,-888.247130,4737.318029,-75996.673402
2538.843916,-2072.576638,5477.523971,-79214.274493
2538.846446,-3404.947333,-10066.800811,-79827.150892
2538.848976,1776.494261,-740.205942,-75537.016103
2538.851506,-3108.864956,13767.830521,-78907.836294
2538.854036,740.205942,8438.347739,-78754.617194
2538.856566,-1036.288319,-7254.018232,-81206.122788
2538.859096,1628.453072,10066.800811,-76149.892501
2538.861627,-3108.864956,5329.482782,-77222.426198
2538.864157,-296.082377,3997.112087,-80133.589091
2538.866687,-296.082377,14359.995275,-77222.426198
2538.869217,-1480.411884,5181.441594,-80593.246390
2538.871747,148.041188,1628.453072,-80133.589091
2538.874277,-888.247130,4293.194464,-77835.302597
2538.876807,2220.617826,4441.235652,-73698.386908
2538.879337,-1036.288319,7994.224174,-74464.482406
2538.881868,296.082377,1480.411884,-79673.931792
2538.884398,-1184.329507,2368.659014,-82125.437386
2538.886928,-592.164754,5773.606348,-79367.493593
2538.889458,2664.741391,5625.565159,-77528.864398
2538.891988,-296.082377,7254.018232,-75230.577904
2538.894518,-888.247130,6365.771101,-76303.111601
2538.897048,-2368.659014,7254.018232,-77375.645298
2538.899578,-740.205942,13471.748144,-79673.931792
2538.902108,1332.370696,5329.482782,-80899.684589
2538.904639,-1332.370696,10510.924376,-78141.740796
2538.907169,-296.082377,2072.576638,-77988.521696
2538.909699,-1184.329507,4145.153275,-75843.454302
2538.912229,148.041188,1480.411884,-77682.083497
2538.914759,-1184.329507,2220.617826,-79520.712692
2538.917289,-2664.741391,-2664.741391,-79061.055394
2538.919819,1924.535449,3108.864956,-76149.892501
2538.922349,-4145.153275,-5773.606348,-79520.712692
2538.924880,3701.029710,-2220.617826,-76915.987999
2538.927423,0.000000,-6365.771101,-78448.178995
2538.929966,-1776.494261,3552.988522,-78141.740796
2538.932509,-1924.535449,-13175.665768,-82125.437386
2538.935052,592.164754,-1628.453072,-76609.549800
2538.937595,2516.700203,888.247130,-75077.358804
2538.940138,-444.123565,-2516.700203,-77222.426198
2538.942680,1480.411884,-3701.029710,-78601.398095
2538.945223,-740.205942,-5181.441594,-81359.341888
2538.947766,1332.370696,1480.411884,-77988.521696
2538.950309,-1184.329507,1184.329507,-78907.836294
2538.952852,444.123565,-2368.659014,-77375.645298
2538.955395,1184.329507,-2220.617826,-76762.768900
2538.957938,1184.329507,0.000000,-76303.111601
2538.960481,-2220.617826,-5773.606348,-78141.740796
2538.963024,2368.659014,-5625.565159,-77835.302597
2538.965567,444.123565,740.205942,-78141.740796
2538.968110,-2516.700203,-8882.471304,-79827.150892
2538.970653,888.247130,-6513.812290,-77988.521696
2538.973196,-148.041188,-1924.535449,-77222.426198
2538.975739,-592.164754,-6957.935855,-78754.617194
2538.978282,-1628.453072,1628.453072,-76303.111601
2538.980825,2220.617826,-4589.276840,-78754.617194
2538.983368,-2516.700203,2516.700203,-76915.987999
2538.985911,-2368.659014,-1924.535449,-80133.589091
2538.988454,-1924.535449,3701.029710,-79061.055394
2538.990997,1332.370696,4885.359217,-77835.302597
2538.993540,148.041188,10362.883188,-75230.577904
2538.996083,-3701.029710,2368.659014,-79827.150892
2538.998626,1184.329507,-6217.729913,-79214.274493
2539.001169,296.082377,15692.365970,-75690.235202
2539.003712,-444.123565,9622.677246,-78448.178995
2539.006255,-1332.370696,7254.018232,-81512.560987
2539.008798,-1184.329507,1924.535449,-81818.999186
2539.011341,-148.041188,2960.823768,-75843.454302
2539.013884,148.041188,12139.377449,-75537.016103
2539.016427,-3997.112087,740.205942,-77528.864398
2539.018970,2368.659014,1776.494261,-79520.712692
2539.021513,444.123565,1776.494261,-79520.712692
2539.024056,296.082377,3701.029710,-80133.589091
2539.026599,-1332.370696,4885.359217,-78141.740796
2539.029153,888.247130,7994.224174,-75383.797003
2539.031706,-1628.453072,9178.553681,-75690.235202
2539.034260,-1776.494261,2072.576638,-77528.864398
2539.036813,-1332.370696,19245.354492,-76456.330700
2539.039367,1776.494261,4737.318029,-81052.903688
2539.041920,1776.494261,5773.606348,-79673.931792
2539.044474,-1036.288319,4589.276840,-78448.178995
2539.047028,-592.164754,8438.347739,-76915.987999
2539.049581,-148.041188,592.164754,-79061.055394
2539.052135,-444.123565,1184.329507,-78448.178995
2539.054688,-4293.194464,3256.906145,-77528.864398
2539.057242,1924.535449,-2368.659014,-77682.083497
2539.059796,-1480.411884,-1628.453072,-77988.521696
2539.062349,4145.153275,-6365.771101,-78754.617194
2539.064903,-1332.370696,-4885.359217,-77682.083497
2539.067456,-1332.370696,-740.205942,-80593.246390
2539.070010,-888.247130,-10066.800811,-79214.274493
2539.072564,-148.041188,1036.288319,-75690.235202
2539.075117,-148.041188,-7994.224174,-78141.740796
2539.077671,740.205942,-2664.741391,-76303.111601
2539.080224,-3108.864956,148.041188,-79520.712692
2539.082778,888.247130,-9622.677246,-81359.341888
2539.085332,296.082377,4589.276840,-75383.797003
2539.087885,-1332.370696,-3256.906145,-80746.465489
2539.090439,148.041188,1184.329507,-77069.207099
2539.092992,888.247130,1332.370696,-77988.521696
2539.095546,-2664.741391,-3404.947333,-79673.931792
2539.098100,2516.700203,-5181.441594,-76762.768900
2539.100653,-296.082377,-3404.947333,-79367.493593
2539.103207,-148.041188,-9178.553681,-79520.712692
2539.105760,3404.947333,888.247130,-77069.207099
2539.108314,148.041188,-13027.624579,-81972.218286
2539.110868,1184.329507,-3701.029710,-76762.768900
2539.113421,1776.494261,-3701.029710,-78141.740796
2539.115975,740.205942,-1628.453072,-76915.987999
2539.118528,296.082377,6217.729913,-76609.549800
2539.121082,2812.782580,-10955.047942,-81512.560987
2539.123636,0.000000,2812.782580,-77375.645298
2539.126189,0.000000,16728.654289,-77375.645298
2539.128743,444.123565,11843.295072,-75537.016103
2539.131304,-592.164754,-7698.141797,-80899.684589
2539.133865,2664.741391,1628.453072,-76456.330700
2539.136426,888.247130,14359.995275,-75383.797003
2539.138986,-1184.329507,7698.141797,-79367.493593
2539.141547,0.000000,11843.295072,-78448.178995
2539.144108,-296.082377,-1776.494261,-81665.780087
2539.146669,1036.288319,6957.935855,-76762.768900
2539.149230,-148.041188,2516.700203,-77988.521696
2539.151791,-3701.029710,8142.265362,-74924.139704
2539.154352,2072.576638,8734.430116,-76915.987999
2539.156913,-1480.411884,1776.494261,-80899.684589
2539.159474,1036.288319,-2072.576638,-81665.780087
2539.162035,2664.741391,10362.883188,-76915.987999
2539.164596,-2072.576638,7105.977043,-77069.207099
2539.167157,1924.535449,10362.883188,-74004.825107
2539.169718,-2220.617826,3701.029710,-79061.055394
2539.172279,1036.288319,12287.418637,-77988.521696
2539.174840,2664.741391,12287.418637,-77988.521696
2539.177401,296.082377,0.000000,-79673.931792
2539.179961,1332.370696,14952.160028,-74004.825107
2539.182522,-2960.823768,4737.318029,-79827.150892
2539.185083,-1332.370696,-2812.782580,-80440.027290
2539.187644,1332.370696,9030.512492,-75690.235202
2539.190205,-1184.329507,-4737.318029,-79980.369991
2539.192766,2220.617826,-5033.400406,-76149.892501
2539.195327,-2516.700203,9178.553681,-76149.892501
2539.197888,-2368.659014,-7105.977043,-81818.999186
2539.200449,3256.906145,-13471.748144,-79214.274493
2539.203010,2220.617826,1480.411884,-77069.207099
2539.205571,-4145.153275,-10066.800811,-79827.150892
2539.208132,1184.329507,-2072.576638,-77375.645298
2539.210693,-1332.370696,-4737.318029,-78754.617194
2539.213254,296.082377,-2368.659014,-77528.864398
2539.215815,0.000000,-1776.494261,-78448.178995
2539.218375,1332.370696,-11251.130318,-81206.122788
2539.220936,2072.576638,3849.070898,-74464.482406
2539.223497,-1628.453072,1924.535449,-78601.398095
2539.226058,-2220.617826,-1776.494261,-79520.712692
2539.228619,2812.782580,-5477.523971,-80593.246390
2539.231180,-1776.494261,-444.123565,-79214.274493
2539.233747,-2960.823768,-4145.153275,-79061.055394
2539.236314,-296.082377,-10807.006753,-77835.302597
2539.238881,444.123565,-2368.659014,-77835.302597
2539.241448,-1036.288319,-9030.512492,-80746.465489
2539.244014,1332.370696,-4145.153275,-79214.274493
2539.246581,444.123565,-7698.141797,-80133.589091
2539.249148,-1184.329507,1776.494261,-77528.864398
2539.251715,1924.535449,1924.535449,-77682.083497
2539.254282,-296.082377,-2368.659014,-77222.426198
2539.256849,4589.276840,1332.370696,-77988.521696
2539.259415,-1036.288319,5033.400406,-78601.398095
2539.261982,888.247130,13323.706956,-76456.330700
2539.264549,-1332.370696,3108.864956,-77988.521696
2539.267116,2368.659014,0.000000,-76762.768900
2539.269683,-592.164754,7994.224174,-76149.892501
2539.272250,740.205942,4885.359217,-77988.521696
2539.274817,-444.123565,18209.066173,-76609.549800
2539.277383,-740.205942,4885.359217,-85496.257577
2539.279950,148.041188,2368.659014,-79520.712692
2539.282517,-1480.411884,888.247130,-77528.864398
2539.285084,-444.123565,15988.448347,-71093.662214
2539.287651,-2516.700203,444.123565,-78601.398095
2539.290218,1628.453072,-2220.617826,-81052.903688
2539.292784,2664.741391,3404.947333,-80286.808190
2539.295351,-2368.659014,8882.471304,-78141.740796
2539.297918,740.205942,5477.523971,-76915.987999
2539.300485,-1036.288319,10955.047942,-73391.948708
2539.303052,1480.411884,4441.235652,-77988.521696
2539.305619,1776.494261,6217.729913,-77069.207099
2539.308186,888.247130,12583.501014,-78141.740796
2539.310752,-888.247130,4145.153275,-80286.808190
2539.313319,0.000000,9918.759623,-76915.987999
2539.315886,-2072.576638,9474.636058,-77835.302597
2539.318453,-148.041188,-2960.823768,-78754.617194
2539.321020,888.247130,2072.576638,-75690.235202
2539.323587,-592.164754,-3701.029710,-78601.398095
2539.326153,2664.741391,-888.247130,-77835.302597
2539.328720,-148.041188,888.247130,-78907.836294
2539.331287,1036.288319,888.247130,-79520.712692
2539.333854,740.205942,-8438.347739,-80440.027290
2539.336425,1036.288319,-6217.729913,-78294.959896
2539.338995,-1036.288319,-2960.823768,-75996.673402
2539.341566,592.164754,-1776.494261,-76915.987999
2539.344136,148.041188,-6069.688724,-78448.178995
2539.346707,2960.823768,-6217.729913,-78601.398095
2539.349277,-3552.988522,1628.453072,-78294.959896
2539.351848,-1332.370696,-5329.482782,-80133.589091
2539.354419,-296.082377,-2516.700203,-75690.235202
2539.356989,296.082377,4441.235652,-76303.111601
2539.359560,-2220.617826,3997.112087,-78448.178995
2539.362130,2220.617826,-8882.471304,-80746.465489
2539.364701,1480.411884,-6365.771101,-78294.959896
2539.367272,-296.082377,-2664.741391,-77069.207099
2539.369842,-444.123565,-8882.471304,-77375.645298
2539.372413,2960.823768,740.205942,-78448.178995
2539.374983,-1184.329507,-8586.388927,-80440.027290
2539.377554,1628.453072,-5921.647536,-80440.027290
2539.380124,740.205942,-1924.535449,-79673.931792
2539.382695,2368.659014,-3849.070898,-76303.111601
2539.385266,2072.576638,11695.253884,-74004.825107
2539.387836,-1036.288319,-14656.077652,-80746.465489
2539.390407,2812.782580,7846.182985,-75843.454302
2539.392977,-1184.329507,9326.594869,-80593.246390
2539.395548,2220.617826,10807.006753,-77682.083497
2539.398119,-888.247130,2664.741391,-77682.083497
2539.400689,-740.205942,-6069.688724,-77835.302597
2539.403260,1776.494261,13471.748144,-72012.976812
2539.405830,-1776.494261,11103.089130,-80440.027290
2539.408401,-1628.453072,8290.306550,-81206.122788
2539.410971,740.205942,4737.318029,-80133.589091
2539.413542,1332.370696,5921.647536,-79827.150892
2539.416113,-2960.823768,-148.041188,-76915.987999
2539.418683,1628.453072,11103.089130,-75077.358804
2539.421254,444.123565,2516.700203,-76149.892501
2539.423824,-740.205942,148.041188,-80440.027290
2539.426395,-444.123565,4737.318029,-80899.684589
2539.428966,-1628.453072,8882.471304,-77528.864398
2539.431536,1184.329507,10510.924376,-76303.111601
2539.434107,-2516.700203,3404.947333,-76915.987999
2539.436677,444.123565,9918.759623,-76915.987999
2539.439252,148.041188,7402.059420,-78448.178995
2539.441826,-888.247130,10955.047942,-78448.178995
2539.444400,-592.164754,6513.812290,-79061.055394
2539.446974,296.082377,9474.636058,-77682.083497
2539.449547,-1332.370696,-296.082377,-77988.521696
2539.452121,-1184.329507,-1776.494261,-78754.617194
2539.454695,-888.247130,-148.041188,-76915.987999
2539.457269,4737.318029,-4737.318029,-78448.178995
2539.459842,296.082377,6069.688724,-77222.426198
2539.462416,-2072.576638,0.000000,-80899.684589
2539.464990,740.205942,-11695.253884,-80899.684589
2539.467564,-2220.617826,-888.247130,-76609.549800
2539.470137,-1924.535449,-10214.842000,-78754.617194
2539.472711,-1628.453072,-2072.576638,-75996.673402
2539.475285,888.247130,-4589.276840,-79673.931792
2539.477859,3849.070898,740.205942,-76762.768900
2539.480432,-1184.329507,3108.864956,-77682.083497
2539.483006,-2072.576638,-9770.718434,-81972.218286
2539.485580,2368.659014,7698.141797,-73238.729609
2539.488154,-3108.864956,-1776.494261,-78754.617194
2539.490727,-444.123565,-9178.553681,-78907.836294
2539.493301,3108.864956,3552.988522,-77222.426198
2539.495875,-5033.400406,-3997.112087,-81052.903688
2539.498449,2368.659014,-13175.665768,-78448.178995
2539.501022,-444.123565,-888.247130,-75077.358804
2539.503596,-3701.029710,-5921.647536,-77375.645298
2539.506170,1480.411884,-7254.018232,-77835.302597
2539.508744,1628.453072,-2368.659014,-81052.903688
2539.511317,-2812.782580,-3404.947333,-80133.589091
2539.513891,4885.359217,-1628.453072,-75996.673402
2539.516465,-6661.853478,4145.153275,-75843.454302
2539.519039,3552.988522,-1924.535449,-77528.864398
2539.521612,-2960.823768,8586.388927,-77835.302597
2539.524186,-740.205942,148.041188,-81972.218286
2539.526760,1776.494261,14656.077652,-75537.016103
2539.529334,-2072.576638,9326.594869,-77528.864398
2539.531907,-1332.370696,-2368.659014,-77835.302597
2539.534481,740.205942,12139.377449,-74158.044206
2539.537055,1332.370696,17912.983796,-78601.398095
2539.539629,-1184.329507,-1628.453072,-83657.628382
2539.542205,1776.494261,9622.677246,-77069.207099
2539.544782,-1036.288319,6365.771101,-78294.959896
2539.547358,1776.494261,6809.894666,-74770.920605
2539.549935,-888.247130,3256.906145,-77375.645298
2539.552511,296.082377,1036.288319,-79520.712692
2539.555087,1628.453072,4441.235652,-77988.521696
2539.557664,-2220.617826,1628.453072,-81665.780087
2539.560240,1036.288319,11103.089130,-75843.454302
2539.562817,148.041188,16728.654289,-74311.263306
2539.565393,-2664.741391,5329.482782,-78907.836294
2539.567970,888.247130,4589.276840,-76609.549800
2539.570546,-1036.288319,7994.224174,-78601.398095
2539.573123,592.164754,5181.441594,-79367.493593
2539.575699,-1184.329507,13175.665768,-76762.768900
2539.578276,-444.123565,5625.565159,-79673.931792
2539.580852,888.247130,-7550.100608,-78294.959896
2539.583429,-3552.988522,-1036.288319,-77528.864398
2539.586005,148.041188,-2072.576638,-76149.892501
2539.588582,-1776.494261,3256.906145,-78141.740796
2539.591158,-888.247130,2516.700203,-79520.712692
2539.593735,-1036.288319,-9770.718434,-81818.999186
2539.596311,2220.617826,-7105.977043,-77988.521696
2539.598888,-2664.741391,-5477.523971,-77069.207099
2539.601464,-888.247130,-2516.700203,-74617.701505
2539.604040,444.123565,-3849.070898,-76762.768900
2539.606617,-1332.370696,-3404.947333,-80133.589091
2539.609193,-1036.288319,-3552.988522,-81206.122788
2539.611770,-1776.494261,-5033.400406,-80440.027290
2539.614346,1332.370696,888.247130,-73391.948708
2539.616923,-740.205942,1332.370696,-74158.044206
2539.619499,-444.123565,592.164754,-78141.740796
2539.622076,-4293.194464,-3701.029710,-82431.875585
2539.624652,296.082377,-11103.089130,-82278.656485
2539.627229,0.000000,-740.205942,-76609.549800
2539.629805,-444.123565,-7105.977043,-78141.740796
2539.632382,-2072.576638,-3849.070898,-76456.330700
2539.634958,0.000000,-7698.141797,-79980.369991
2539.637535,444.123565,-11399.171507,-80746.465489
2539.640111,-2960.823768,4589.276840,-79214.274493
2539.642688,1332.370696,-3997.112087,-80440.027290
2539.645265,-1480.411884,-3997.112087,-76762.768900
2539.647842,2072.576638,2664.741391,-75843.454302
2539.650420,-2220.617826,5773.606348,-79214.274493
2539.652997,888.247130,7105.977043,-79980.369991
2539.655575,-3256.906145,-148.041188,-80746.465489
2539.658152,5181.441594,15100.201217,-74004.825107
2539.660730,-1776.494261,1480.411884,-78601.398095
2539.663307,-2516.700203,3701.029710,-76303.111601
2539.665885,3701.029710,16284.530724,-76149.892501
2539.668462,-2072.576638,-3552.988522,-82891.532884
2539.671039,-444.123565,11695.253884,-77375.645298
2539.673617,0.000000,11399.171507,-77682.083497
2539.676194,-740.205942,2960.823768,-78141.740796
2539.678772,1628.453072,-1480.411884,-77528.864398
2539.681349,296.082377,4885.359217,-78141.740796
2539.683927,-3552.988522,3108.864956,-79980.369991
2539.686504,6365.771101,7105.977043,-77988.521696
2539.689081,-2368.659014,12731.542202,-78601.398095
2539.691659,296.082377,888.247130,-79214.274493
2539.694236,3552.988522,16432.571912,-74617.701505
2539.696814,-2368.659014,4441.235652,-78294.959896
2539.699391,444.123565,4885.359217,-76609.549800
2539.701969,2368.659014,13175.665768,-75230.577904
2539.704546,-1776.494261,4737.318029,-80440.027290
2539.707123,1924.535449,2960.823768,-78754.617194
2539.709701,-3552.988522,-8586.388927,-80286.808190
2539.712278,1776.494261,4885.359217,-75690.235202
2539.714856,-1480.411884,-7105.977043,-77222.426198
2539.717433,592.164754,2812.782580,-76609.549800
2539.720011,-1776.494261,9030.512492,-78601.398095
2539.722588,148.041188,-16580.613101,-84883.381178
2539.725165,2812.782580,-11103.089130,-77835.302597
2539.727743,-888.247130,3108.864956,-73851.606007
2539.730320,1480.411884,-1184.329507,-75996.673402
2539.732898,-3256.906145,-1628.453072,-79061.055394
2539.735475,2664.741391,-9622.677246,-83504.409282
2539.738053,888.247130,-740.205942,-77988.521696
2539.740630,-1184.329507,2960.823768,-78141.740796
2539.743207,-3108.864956,-2072.576638,-75537.016103
2539.745785,3256.906145,-4145.153275,-74158.044206
2539.748363,-5477.523971,5625.565159,-77069.207099
2539.750942,-3701.029710,-10658.965565,-83810.847481
2539.753520,-444.123565,-17912.983796,-81052.903688
2539.756098,1332.370696,5477.523971,-73391.948708
2539.758677,444.123565,-6069.688724,-75996.673402
2539.761255,-1480.411884,-10658.965565,-77682.083497
2539.763833,1036.288319,-5921.647536,-80746.465489
2539.766411,-1776.494261,-2072.576638,-79673.931792
2539.768990,0.000000,-1628.453072,-80440.027290
2539.771568,2664.741391,-1036.288319,-76762.768900
2539.774146,4589.276840,3701.029710,-74311.263306
2539.776725,-740.205942,10955.047942,-78294.959896
2539.779303,-1480.411884,-3552.988522,-81206.122788
2539.781881,-1480.411884,-6809.894666,-80746.465489
2539.784460,5033.400406,15692.365970,-74617.701505
2539.787038,-1184.329507,8438.347739,-78448.178995
2539.789616,740.205942,1036.288319,-78754.617194
2539.792195,3701.029710,16432.571912,-75690.235202
2539.794773,-3404.947333,1184.329507,-80899.684589
2539.797351,2220.617826,4441.235652,-77988.521696
2539.799930,-888.247130,6957.935855,-78141.740796
2539.802508,3256.906145,9622.677246,-75077.358804
2539.805086,-2220.617826,1924.535449,-79520.712692
2539.807665,-296.082377,-2368.659014,-80133.589091
2539.810243,-296.082377,6217.729913,-79214.274493
2539.812821,2664.741391,10066.800811,-78601.398095
2539.815400,0.000000,5773.606348,-77988.521696
2539.817978,1184.329507,11399.171507,-76303.111601
2539.820556,-148.041188,9474.636058,-77682.083497
2539.823134,-1628.453072,6217.729913,-78601.398095
2539.825713,-888.247130,6069.688724,-77988.521696
2539.828291,0.000000,10214.842000,-76149.892501
2539.830869,296.082377,10807.006753,-75537.016103
2539.833448,592.164754,-3404.947333,-80286.808190
2539.836026,-2960.823768,-8438.347739,-79520.712692
2539.838604,2664.741391,-2220.617826,-77375.645298
2539.841183,-1332.370696,9178.553681,-76915.987999
2539.843761,2812.782580,-1332.370696,-79367.493593
2539.846339,-1332.370696,-5921.647536,-78601.398095
2539.848918,1332.370696,-1332.370696,-78294.959896
2539.851497,-444.123565,-18949.272115,-80133.589091
2539.854076,296.082377,1332.370696,-74158.044206
2539.856655,296.082377,296.082377,-76149.892501
2539.859234,-2220.617826,-4441.235652,-79827.150892
2539.861813,-1332.370696,-7846.182985,-83044.751983
2539.864392,-1776.494261,-1924.535449,-79673.931792
2539.866971,1628.453072,5477.523971,-73698.386908
2539.869551,-592.164754,-5033.400406,-77222.426198
2539.872130,1332.370696,-2664.741391,-76149.892501
2539.874709,-3256.906145,740.205942,-80133.589091
2539.877288,-1184.329507,-15988.448347,-83504.409282
2539.879867,-1480.411884,-592.164754,-75383.797003
2539.882446,-1184.329507,-6217.729913,-79214.274493
2539.885025,-444.123565,-6661.853478,-74924.139704
2539.887604,-1036.288319,-7994.224174,-78601.398095
2539.890183,-740.205942,-3849.070898,-80593.246390
2539.892763,4589.276840,4885.359217,-76915.987999
2539.895342,-5921.647536,-1184.329507,-79827.150892
2539.897921,3256.906145,4145.153275,-75996.673402
2539.900500,-2368.659014,4145.153275,-75537.016103
2539.903079,0.000000,6365.771101,-78754.617194
2539.905658,888.247130,4441.235652,-78294.959896
2539.908237,148.041188,-888.247130,-80746.465489
2539.910816,1332.370696,9622.677246,-75996.673402
2539.913395,-740.205942,17468.860231,-75077.358804
2539.915975,740.205942,444.123565,-80286.808190
2539.918554,0.000000,-2516.700203,-80440.027290
2539.921133,296.082377,12583.501014,-76303.111601
2539.923712,-3108.864956,740.205942,-79673.931792
2539.926291,2368.659014,17172.777854,-74924.139704
2539.928870,-1184.329507,-2220.617826,-81052.903688
2539.931449,444.123565,444.123565,-78907.836294
2539.934028,2368.659014,9918.759623,-77375.645298
2539.936607,-1184.329507,5477.523971,-79061.055394
2539.939187,740.205942,10955.047942,-74770.920605
2539.941766,1332.370696,5921.647536,-77528.864398
2539.944345,-444.123565,-888.247130,-78448.178995
2539.946924,-592.164754,7698.141797,-79980.369991
2539.949503,148.041188,5921.647536,-77835.302597
2539.952082,-296.082377,11103.089130,-77222.426198
2539.954661,1332.370696,1480.411884,-77988.521696
2539.957239,888.247130,-444.123565,-77375.645298
2539.959818,-1628.453072,-5329.482782,-78754.617194
2539.962396,3404.947333,-5477.523971,-76915.987999
2539.964975,-1480.411884,13471.748144,-76149.892501
2539.967554,-888.247130,-3552.988522,-81818.999186
2539.970132,2960.823768,-6365.771101,-78601.398095
2539.972711,592.164754,-5329.482782,-79367.493593
2539.975289,-2072.576638,-4885.359217,-76609.549800
2539.977868,-148.041188,-1184.329507,-76303.111601
2539.980446,2960.823768,-5921.647536,-80440.027290
2539.983025,1036.288319,-1184.329507,-79214.274493
2539.985604,-1480.411884,-6217.729913,-82125.437386
2539.988182,592.164754,2812.782580,-78754.617194
2539.990761,740.205942,-1480.411884,-75230.577904
2539.993339,888.247130,-3256.906145,-75383.797003
2539.995918,0.000000,2516.700203,-75996.673402
2539.998496,-4441.235652,-13915.871710,-83964.066581
2540.001075,2516.700203,-14508.036463,-81359.341888
2540.003654,-2812.782580,2368.659014,-74004.825107
2540.006232,-2664.741391,-8290.306550,-78754.617194
2540.008811,-888.247130,-4589.276840,-75230.577904
2540.011389,1480.411884,-9178.553681,-81052.903688
2540.013968,2368.659014,-4145.153275,-79061.055394
2540.016546,-1184.329507,3404.947333,-79367.493593
2540.019125,148.041188,-2516.700203,-79520.712692
2540.021704,2664.741391,7846.182985,-73851.606007
2540.024282,-1628.453072,7698.141797,-77835.302597
2540.026861,296.082377,4737.318029,-78601.398095
2540.029439,-2072.576638,-4293.194464,-81206.122788
2540.032018,2072.576638,9326.594869,-77222.426198
2540.034596,-888.247130,16284.530724,-75383.797003
2540.037175,-2368.659014,1924.535449,-80286.808190
2540.039754,2516.700203,11843.295072,-77528.864398
2540.042332,-2960.823768,-6365.771101,-81359.341888
2540.044911,3849.070898,13471.748144,-75383.797003
2540.047489,-2072.576638,4737.318029,-77682.083497
2540.050068,-1332.370696,8290.306550,-77375.645298
2540.052646,148.041188,5773.606348,-79520.712692
2540.055225,888.247130,-4145.153275,-81206.122788
2540.057803,1924.535449,6809.894666,-78141.740796
2540.060381,2812.782580,17172.777854,-75230.577904
2540.062959,592.164754,-1628.453072,-80133.589091
2540.065537,1184.329507,18949.272115,-73851.606007
2540.068115,-1480.411884,3701.029710,-82278.656485
2540.070693,1332.370696,3997.112087,-78448.178995
2540.073271,-148.041188,19541.436869,-75843.454302
2540.075849,-888.247130,2664.741391,-77988.521696
2540.078427,1184.329507,3849.070898,-77682.083497
2540.081005,-3552.988522,-16728.654289,-81206.122788
2540.083583,1776.494261,148.041188,-74311.263306
2540.086161,-1036.288319,10807.006753,-76456.330700
2540.088739,1036.288319,-3701.029710,-81052.903688
2540.091317,1924.535449,-3997.112087,-78448.178995
2540.093895,-1332.370696,-2220.617826,-80286.808190
2540.096473,0.000000,-14508.036463,-78448.178995
2540.099051,-444.123565,-3108.864956,-73698.386908
2540.101629,3997.112087,7846.182985,-74924.139704
2540.104207,-2664.741391,-7402.059420,-80286.808190
2540.106785,1332.370696,-9178.553681,-82585.094684
2540.109363,1332.370696,-7698.141797,-79673.931792
2540.111941,3701.029710,7994.224174,-72625.853210
2540.114519,-1480.411884,1628.453072,-75383.797003
2540.117097,-5033.400406,-9918.759623,-78907.836294
2540.119675,2812.782580,-3997.112087,-78448.178995
2540.122253,-2072.576638,-9474.636058,-81818.999186
2540.124831,-148.041188,-9326.594869,-79367.493593
2540.127409,1332.370696,740.205942,-75843.454302
2540.129987,444.123565,-13767.830521,-77682.083497
2540.132565,2960.823768,-1628.453072,-76149.892501
2540.135143,-740.205942,-11399.171507,-82278.656485
2540.137721,-296.082377,3108.864956,-77375.645298
2540.140299,1332.370696,5181.441594,-77988.521696
2540.142877,1924.535449,4737.318029,-77682.083497
2540.145456,1332.370696,6809.894666,-76915.987999
2540.148034,2220.617826,1628.453072,-78141.740796
2540.150612,-1480.411884,-1480.411884,-78907.836294
2540.153190,3552.988522,3552.988522,-77528.864398
2540.155768,-3849.070898,22354.219448,-77069.207099
2540.158346,592.164754,1924.535449,-81818.999186
2540.160923,2072.576638,10066.800811,-76915.987999
2540.163501,-1036.288319,4589.276840,-77835.302597
2540.166078,444.123565,2960.823768,-76762.768900
2540.168656,-740.205942,6661.853478,-74770.920605
2540.171233,-1628.453072,7550.100608,-78754.617194
2540.173811,1036.288319,-296.082377,-81206.122788
2540.176389,1184.329507,9918.759623,-79520.712692
2540.178966,-3849.070898,9622.677246,-78907.836294
2540.181544,-148.041188,6069.688724,-75077.358804
2540.184121,1184.329507,18949.272115,-73545.167808
2540.186699,-148.041188,2072.576638,-78601.398095
2540.189276,592.164754,6809.894666,-78754.617194
2540.191854,2072.576638,12879.583391,-81206.122788
2540.194432,-1924.535449,7402.059420,-78141.740796
2540.197009,3108.864956,8882.471304,-77069.207099
2540.199587,-3256.906145,-5625.565159,-78601.398095
2540.202164,-3108.864956,-6513.812290,-76915.987999
2540.204742,2812.782580,-8734.430116,-77988.521696
2540.207319,444.123565,10066.800811,-74924.139704
2540.209897,-3552.988522,3108.864956,-80746.465489
2540.212475,-592.164754,-7846.182985,-81206.122788
2540.215052,-444.123565,-13175.665768,-79061.055394
2540.217630,-592.164754,-3997.112087,-76303.111601
2540.220207,1184.329507,4737.318029,-73085.510509
2540.222785,-4885.359217,-4441.235652,-80286.808190
2540.225362,2812.782580,-444.123565,-81359.341888
2540.227940,-1184.329507,-8882.471304,-81512.560987
2540.230518,0.000000,-1480.411884,-79061.055394
2540.233095,592.164754,-888.247130,-74464.482406
2540.235673,296.082377,-2664.741391,-74617.701505
2540.238250,740.205942,-4145.153275,-79673.931792
2540.240828,-1776.494261,-14211.954086,-83197.971083
2540.243366,4145.153275,-2664.741391,-79980.369991
2540.245905,740.205942,1776.494261,-76149.892501
2540.248443,-296.082377,-11547.212695,-76762.768900
2540.250982,4441.235652,-5773.606348,-77528.864398
2540.253520,-296.082377,-10066.800811,-79673.931792
2540.256059,-740.205942,4145.153275,-79214.274493
2540.258598,-5477.523971,-1480.411884,-81512.560987
2540.261136,1036.288319,11843.295072,-77528.864398
2540.263675,0.000000,6217.729913,-78141.740796
2540.266213,-296.082377,6365.771101,-76456.330700
2540.268752,-1628.453072,-2812.782580,-79367.493593
2540.271290,2220.617826,5921.647536,-76456.330700
2540.273829,0.000000,14952.160028,-77835.302597
2540.276367,-888.247130,7105.977043,-80133.589091
2540.278906,1332.370696,10510.924376,-79367.493593
2540.281444,-888.247130,-2960.823768,-80593.246390
2540.283983,-592.164754,7846.182985,-74311.263306
2540.286521,-148.041188,13915.871710,-74770.920605
2540.289060,-2220.617826,3256.906145,-78294.959896
2540.291598,444.123565,-4441.235652,-79214.274493
2540.294137,4441.235652,11547.212695,-77988.521696
2540.296675,-7550.100608,8734.430116,-80133.589091
2540.299214,2960.823768,3849.070898,-76915.987999
2540.301752,1776.494261,14952.160028,-74004.825107
2540.304291,592.164754,12287.418637,-76149.892501
2540.306830,-2516.700203,1924.535449,-79520.712692
2540.309368,3552.988522,13471.748144,-78754.617194
2540.311907,-1480.411884,8586.388927,-79367.493593
2540.314445,1036.288319,5033.400406,-78141.740796
2540.316984,-3997.112087,-6809.894666,-79367.493593
2540.319522,-888.247130,-8290.306550,-76456.330700
2540.322061,2664.741391,-4885.359217,-76149.892501
2540.324599,-1628.453072,4441.235652,-78294.959896
2540.327138,-5181.441594,8290.306550,-78754.617194
2540.329676,2960.823768,-11991.336260,-82738.313784
2540.332215,-888.247130,-13323.706956,-75537.016103
2540.334753,-296.082377,1332.370696,-74158.044206
2540.337292,-148.041188,-9622.677246,-76762.768900
2540.339830,1628.453072,888.247130,-77222.426198
2540.342369,-888.247130,-1628.453072,-82738.313784
2540.344914,444.123565,-3997.112087,-81512.560987
2540.347460,-2516.700203,-740.205942,-80899.684589
2540.350005,592.164754,-296.082377,-74311.263306
2540.352551,1628.453072,-1332.370696,-73851.606007
2540.355097,592.164754,-4145.153275,-78141.740796
2540.357642,-740.205942,-7698.141797,-81359.341888
2540.360188,444.123565,-13767.830521,-82125.437386
2540.362733,1332.370696,-888.247130,-77069.207099
2540.365279,-296.082377,-1924.535449,-74770.920605
2540.367824,-2220.617826,-5033.400406,-76915.987999
2540.370370,0.000000,-13619.789333,-80899.684589
2540.372915,888.247130,3701.029710,-76762.768900
2540.375461,2368.659014,4737.318029,-80440.027290
2540.378006,-3404.947333,9474.636058,-77835.302597
2540.380552,740.205942,3256.906145,-78907.836294
2540.383097,2664.741391,7402.059420,-76609.549800
2540.385643,-1480.411884,6069.688724,-75690.235202
2540.388188,1036.288319,-1776.494261,-79980.369991
2540.390734,592.164754,19541.436869,-74004.825107
2540.393280,-1332.370696,16580.613101,-79214.274493
2540.395825,592.164754,-11547.212695,-85189.819378
2540.398371,2516.700203,9326.594869,-76303.111601
2540.400916,-3256.906145,2664.741391,-77988.521696
2540.403462,148.041188,13915.871710,-71553.319513
2540.406007,-2960.823768,2516.700203,-79367.493593
2540.408553,2072.576638,-2072.576638,-83044.751983
2540.411098,4589.276840,13323.706956,-76762.768900
2540.413644,-148.041188,10066.800811,-79827.150892
2540.416189,2812.782580,11547.212695,-74158.044206
2540.418735,1036.288319,10214.842000,-74770.920605
2540.421280,-740.205942,3997.112087,-79980.369991
2540.423826,2072.576638,15544.324782,-75843.454302
2540.426371,-1036.288319,7994.224174,-83197.971083
2540.428917,1924.535449,8142.265362,-78601.398095
2540.431463,2220.617826,-888.247130,-78141.740796
2540.434008,-740.205942,-9622.677246,-77222.426198
2540.436554,4885.359217,-10362.883188,-73391.948708
2540.439099,2368.659014,0.000000,-76609.549800
2540.441645,-2664.741391,9178.553681,-79214.274493
2540.444190,-2368.659014,-2960.823768,-84423.723880
2540.446739,-1036.288319,-19541.436869,-81818.999186
2540.449291,1776.494261,2516.700203,-71859.757712
2540.451842,-2812.782580,-6069.688724,-74770.920605
2540.454394,-2220.617826,-8438.347739,-77528.864398
2540.456946,1480.411884,4293.194464,-78141.740796
2540.459497,-1924.535449,-3849.070898,-84270.504780
2540.462049,-1332.370696,-5921.647536,-81818.999186
2540.464601,148.041188,888.247130,-74464.482406
2540.467152,1628.453072,-2220.617826,-74617.701505
2540.469704,888.247130,-9326.594869,-77375.645298
2540.472255,444.123565,-4737.318029,-80593.246390
2540.474807,-1924.535449,-12583.501014,-84117.285680
2540.477359,1924.535449,-10510.924376,-78754.617194
2540.479910,1332.370696,-444.123565,-74158.044206
2540.482462,-2220.617826,-3256.906145,-76915.987999
2540.485014,740.205942,-15544.324782,-79214.274493
2540.487565,-4885.359217,3404.947333,-77835.302597
2540.490117,296.082377,7402.059420,-78141.740796
2540.492668,-888.247130,11991.336260,-77222.426198
2540.495220,148.041188,9326.594869,-78294.959896
2540.497772,-592.164754,-5625.565159,-78448.178995
2540.500323,3108.864956,1924.535449,-76915.987999
2540.502875,592.164754,-888.247130,-78448.178995
2540.505427,-296.082377,23094.425390,-74004.825107
2540.507978,-592.164754,16284.530724,-80746.465489
2540.510530,-444.123565,-3108.864956,-83351.190182
2540.513081,148.041188,5921.647536,-77222.426198
2540.515633,-2812.782580,-1184.329507,-76303.111601
2540.518185,740.205942,8882.471304,-71706.538613
2540.520736,-1332.370696,10362.883188,-77682.083497
2540.523288,2368.659014,-592.164754,-85649.476676
2540.525840,2072.576638,8438.347739,-79980.369991
2540.528391,444.123565,18209.066173,-77682.083497
2540.530943,-888.247130,7846.182985,-76303.111601
2540.533495,1480.411884,10362.883188,-73545.167808
2540.536046,-1332.370696,5773.606348,-75077.358804
2540.538598,3997.112087,10658.965565,-75690.235202
2540.541149,-2368.659014,14063.912898,-81972.218286
2540.543701,2368.659014,2220.617826,-81972.218286
2540.546253,1628.453072,-3108.864956,-77682.083497
2540.548809,3997.112087,-6217.729913,-74924.139704
2540.551366,-3404.947333,1480.411884,-73545.167808
2540.553923,2960.823768,-2812.782580,-77682.083497
2540.556480,444.123565,3404.947333,-78754.617194
2540.559037,-2368.659014,-1036.288319,-83657.628382
2540.561593,-888.247130,-16728.654289,-80746.465489
2540.564150,0.000000,-444.123565,-73391.948708
2540.566707,444.123565,-2368.659014,-75077.358804
2540.569264,-2516.700203,-10955.047942,-78448.178995
2540.571821,-2812.782580,-4441.235652,-80593.246390
2540.574377,1924.535449,-1036.288319,-79827.150892
2540.576934,444.123565,3108.864956,-77222.426198
2540.579491,-2664.741391,-7402.059420,-77988.521696
2540.582048,3256.906145,-740.205942,-73238.729609
2540.584605,-444.123565,-3552.988522,-77375.645298
2540.587161,-740.205942,-20281.642811,-84423.723880
2540.589718,-296.082377,-5773.606348,-78601.398095
2540.592275,592.164754,-148.041188,-79980.369991
2540.594832,1776.494261,-11695.253884,-78907.836294
2540.597389,-1184.329507,-2368.659014,-75537.016103
2540.599945,148.041188,-4145.153275,-78141.740796
2540.602502,6217.729913,-2812.782580,-78141.740796
2540.605059,1332.370696,6217.729913,-79214.274493
2540.607616,-888.247130,11103.089130,-79520.712692
2540.610172,2812.782580,14063.912898,-75230.577904
2540.612729,-2960.823768,-7994.224174,-81359.341888
2540.615286,3552.988522,2960.823768,-75690.235202
2540.617843,-296.082377,13471.748144,-75537.016103
2540.620400,-296.082377,6217.729913,-78294.959896
2540.622956,3997.112087,17320.819043,-76915.987999
2540.625513,-1184.329507,-4737.318029,-84576.942979
2540.628070,1924.535449,-740.205942,-78601.398095
2540.630627,888.247130,9178.553681,-73238.729609
2540.633184,-2220.617826,2812.782580,-76303.111601
2540.635740,3404.947333,4737.318029,-77988.521696
2540.638297,-1480.411884,9770.718434,-81052.903688
2540.640854,2812.782580,9474.636058,-82278.656485
2540.643411,-296.082377,9178.553681,-77222.426198
2540.645968,-2516.700203,16284.530724,-75996.673402
2540.648524,-2368.659014,3404.947333,-74770.920605
2540.651084,3256.906145,11843.295072,-76149.892501
2540.653645,-888.247130,12583.501014,-79827.150892
2540.656205,-444.123565,2368.659014,-81972.218286
2540.658765,-2368.659014,0.000000,-78448.178995
2540.661325,-2072.576638,-1184.329507,-76915.987999
2540.663885,-888.247130,-10510.924376,-75230.577904
2540.666445,148.041188,1332.370696,-74617.701505
2540.669005,-4145.153275,5477.523971,-79520.712692
2540.671565,592.164754,-7105.977043,-84117.285680
2540.674125,-148.041188,-10066.800811,-80593.246390
2540.676685,0.000000,5477.523971,-75383.797003
2540.679245,-740.205942,-296.082377,-74004.825107
2540.681806,-1628.453072,-12287.418637,-76915.987999
2540.684366,3849.070898,-740.205942,-79214.274493
2540.686926,-1036.288319,-888.247130,-80899.684589
2540.689486,-1332.370696,-296.082377,-79980.369991
2540.692046,2516.700203,-4293.194464,-77835.302597
2540.694606,1628.453072,-2368.659014,-74311.263306
2540.697166,-2072.576638,-2072.576638,-77835.302597
2540.699726,1628.453072,-17912.983796,-82585.094684
2540.702286,-444.123565,-11251.130318,-78448.178995
2540.704846,-888.247130,3849.070898,-78754.617194
2540.707406,-6217.729913,-4737.318029,-77682.083497
2540.709967,2368.659014,-12435.459826,-77682.083497
2540.712527,-2960.823768,3404.947333,-75690.235202
2540.715087,-1628.453072,-4293.194464,-81206.122788
2540.717647,-592.164754,4145.153275,-80899.684589
2540.720207,-1036.288319,15988.448347,-77375.645298
2540.722767,3552.988522,8734.430116,-78294.959896
2540.725327,-888.247130,-6957.935855,-80593.246390
2540.727887,3997.112087,-1036.288319,-75077.358804
2540.730447,3849.070898,21169.889941,-73698.386908
2540.733007,-2516.700203,4737.318029,-82278.656485
2540.735568,1776.494261,4589.276840,-80746.465489
2540.738128,444.123565,13175.665768,-79214.274493
2540.740688,-1924.535449,-7402.059420,-79520.712692
2540.743248,1036.288319,6217.729913,-72472.634111
2540.745808,-592.164754,10066.800811,-75230.577904
2540.748368,444.123565,1628.453072,-79367.493593
2540.750928,-1924.535449,5033.400406,-81359.341888
2540.753491,148.041188,18653.189738,-79520.712692
2540.756054,-3701.029710,7846.182985,-80440.027290
2540.758617,148.041188,7105.977043,-75230.577904
2540.761181,148.041188,18209.066173,-71859.757712
2540.763744,-1332.370696,6365.771101,-77682.083497
2540.766307,444.123565,7550.100608,-78754.617194
2540.768870,-2812.782580,4589.276840,-81665.780087
2540.771433,-2812.782580,-6661.853478,-80286.808190
2540.773996,1036.288319,-1924.535449,-74770.920605
2540.776559,-5329.482782,-592.164754,-77528.864398
2540.779122,4293.194464,-2368.659014,-76456.330700
2540.781685,2812.782580,-5181.441594,-79673.931792
2540.784249,-296.082377,-4441.235652,-80593.246390
2540.786812,-1924.535449,2220.617826,-77069.207099
2540.789375,-1332.370696,-14952.160028,-78141.740796
2540.791938,-1776.494261,-1036.288319,-75537.016103
2540.794501,1036.288319,-1332.370696,-78294.959896
2540.797064,0.000000,4441.235652,-79061.055394
2540.799627,-3552.988522,-5921.647536,-83197.971083
2540.802190,3849.070898,-7846.182985,-76762.768900
2540.804753,1924.535449,5181.441594,-72166.195912
2540.807317,-6069.688724,-6069.688724,-78294.959896
2540.809880,-1480.411884,-14508.036463,-79520.712692
2540.812443,1184.329507,-13619.789333,-79827.150892
2540.815006,-148.041188,2812.782580,-79520.712692
2540.817569,-3108.864956,-4737.318029,-79367.493593
2540.820132,1480.411884,-13027.624579,-79061.055394
2540.822695,444.123565,2664.741391,-73698.386908
2540.825258,3701.029710,-6217.729913,-79367.493593
2540.827821,-740.205942,2960.823768,-79214.274493
2540.830385,-740.205942,14211.954086,-79214.274493
2540.832948,2664.741391,8734.430116,-79367.493593
2540.835511,-5033.400406,-5773.606348,-80593.246390
2540.838074,5181.441594,3108.864956,-77069.207099
2540.840637,-2664.741391,14656.077652,-74311.263306
2540.843200,0.000000,2368.659014,-80133.589091
2540.845763,1776.494261,4293.194464,-81512.560987
2540.848326,-592.164754,7994.224174,-79673.931792
2540.850889,-2664.741391,-296.082377,-79367.493593
2540.853453,2516.700203,3997.112087,-73545.167808
2540.856018,-592.164754,4293.194464,-77222.426198
2540.858584,4293.194464,5921.647536,-79367.493593
2540.861150,-1628.453072,11399.171507,-80440.027290
2540.863715,5773.606348,4589.276840,-83657.628382
2540.866281,-1184.329507,21021.848753,-73545.167808
2540.868847,-1480.411884,7698.141797,-77375.645298
2540.871412,740.205942,3108.864956,-76456.330700
2540.873978,148.041188,12879.583391,-75383.797003
2540.876544,-1184.329507,4589.276840,-83044.751983
2540.879109,3108.864956,2220.617826,-79520.712692
2540.881675,-3552.988522,-1036.288319,-80899.684589
2540.884241,2960.823768,-6809.894666,-77069.207099
2540.886807,-3404.947333,8142.265362,-71093.662214
2540.889372,1036.288319,-4885.359217,-79520.712692
2540.891938,1628.453072,-7402.059420,-77988.521696
2540.894504,-592.164754,-2516.700203,-81206.122788
2540.897069,-888.247130,6809.894666,-77682.083497
2540.899635,-1924.535449,-8142.265362,-77069.207099
2540.902201,740.205942,296.082377,-76149.892501
2540.904766,1776.494261,-6513.812290,-77988.521696
2540.907332,-1628.453072,3108.864956,-77682.083497
2540.909898,-2664.741391,-3256.906145,-83197.971083
2540.912463,6069.688724,-5921.647536,-75996.673402
2540.915029,740.205942,444.123565,-75230.577904
2540.917595,444.123565,-6217.729913,-77069.207099
2540.920161,-2368.659014,-7550.100608,-79061.055394
2540.922726,5033.400406,-17468.860231,-82585.094684
2540.925292,2072.576638,-7105.977043,-77988.521696
2540.927858,-3552.988522,2072.576638,-76149.892501
2540.930423,1480.411884,-7846.182985,-79980.369991
2540.932989,-2664.741391,-5625.565159,-74617.701505
2540.935555,1480.411884,-2220.617826,-78448.178995
2540.938120,-2664.741391,8882.471304,-77528.864398
2540.940686,148.041188,11695.253884,-80746.465489
2540.943252,2072.576638,1924.535449,-81512.560987
2540.945817,-740.205942,2072.576638,-76609.549800
2540.948383,2220.617826,-1332.370696,-79214.274493
2540.950949,2072.576638,13619.789333,-73238.729609
2540.953515,592.164754,13323.706956,-77682.083497
2540.956080,-2220.617826,-5329.482782,-84883.381178
2540.958647,-1776.494261,9030.512492,-77835.302597
2540.961214,-148.041188,8734.430116,-79214.274493
2540.963781,-296.082377,-2960.823768,-78448.178995
2540.966348,1184.329507,2664.741391,-74311.263306
2540.968915,-3701.029710,10362.883188,-77988.521696
2540.971483,-2368.659014,4589.276840,-80133.589091
2540.974050,592.164754,16284.530724,-81206.122788
2540.976617,-1332.370696,9918.759623,-79980.369991
2540.979184,444.123565,5033.400406,-74617.701505
2540.981751,1480.411884,13767.830521,-74004.825107
2540.984318,-1184.329507,4589.276840,-77835.302597
2540.986885,888.247130,7846.182985,-79827.150892
2540.989452,-2072.576638,-3108.864956,-81972.218286
2540.992019,-148.041188,2664.741391,-77682.083497
2540.994586,-592.164754,-5773.606348,-77835.302597
2540.997153,2812.782580,148.041188,-74464.482406
2540.999720,-4145.153275,3997.112087,-75537.016103
2541.002287,2812.782580,-6809.894666,-80746.465489
2541.004854,0.000000,-12879.583391,-80746.465489
2541.007421,2072.576638,1628.453072,-78141.740796
2541.009988,3701.029710,2960.823768,-75996.673402
2541.012555,-1924.535449,-4737.318029,-77222.426198
2541.015122,-1184.329507,-3701.029710,-80899.684589
2541.017689,1184.329507,-2220.617826,-78141.740796
2541.020257,740.205942,3849.070898,-76456.330700
2541.022824,-2220.617826,-4145.153275,-77528.864398
2541.025391,2368.659014,-11399.171507,-77988.521696
2541.027958,3256.906145,-2516.700203,-76303.111601
2541.030525,-3256.906145,-8882.471304,-80133.589091
2541.033092,0.000000,-12731.542202,-81359.341888
2541.035659,-888.247130,-3997.112087,-78448.178995
2541.038226,148.041188,-5033.400406,-76762.768900
2541.040793,2072.576638,-5329.482782,-76762.768900
2541.043360,444.123565,-4293.194464,-77222.426198
2541.045927,3404.947333,7994.224174,-76456.330700
2541.048494,-740.205942,9474.636058,-79827.150892
2541.051061,296.082377,7846.182985,-80593.246390
2541.053628,-1776.494261,888.247130,-79520.712692
2541.056195,1332.370696,3404.947333,-77069.207099
2541.058762,-2812.782580,4885.359217,-75077.358804
2541.061331,1480.411884,2072.576638,-78294.959896
2541.063899,-1480.411884,10807.006753,-77835.302597
2541.066467,2368.659014,3404.947333,-81206.122788
2541.069036,-592.164754,6809.894666,-79827.150892
2541.071604,592.164754,-1924.535449,-78141.740796
2541.074172,444.123565,3404.947333,-73391.948708
2541.076741,-1776.494261,8142.265362,-75690.235202
2541.079309,-3701.029710,8586.388927,-78907.836294
2541.081877,5773.606348,11843.295072,-81206.122788
2541.084446,-296.082377,8734.430116,-80440.027290
2541.087014,-592.164754,15100.201217,-75230.577904
2541.089582,1036.288319,15840.407159,-73545.167808
2541.092151,-2220.617826,3701.029710,-78448.178995
2541.094719,1924.535449,3404.947333,-78601.398095
2541.097287,-444.123565,3552.988522,-79980.369991
2541.099856,-2072.576638,592.164754,-80286.808190
2541.102424,-592.164754,-12583.501014,-79214.274493
2541.104992,3552.988522,10362.883188,-70787.224015
2541.107561,-5625.565159,592.164754,-77988.521696
2541.110129,-592.164754,-15248.242405,-81512.560987
2541.112697,3997.112087,-2960.823768,-77222.426198
2541.115266,1924.535449,10362.883188,-76303.111601
2541.117834,-2368.659014,-3404.947333,-77988.521696
2541.120402,-2220.617826,-5329.482782,-78907.836294
2541.122971,148.041188,1924.535449,-78754.617194
2541.125539,1628.453072,444.123565,-76609.549800
2541.128107,-3552.988522,-3256.906145,-79827.150892
2541.130675,444.123565,-444.123565,-77069.207099
2541.133244,2812.782580,-10658.965565,-76762.768900
2541.135812,-2072.576638,-1036.288319,-78294.959896
2541.138380,-2220.617826,-14359.995275,-81665.780087
2541.140949,-888.247130,-7846.182985,-78907.836294
2541.143517,1184.329507,4589.276840,-76762.768900
2541.146085,592.164754,-11547.212695,-78294.959896
2541.148654,-4885.359217,-296.082377,-75843.454302
2541.151222,-296.082377,-2960.823768,-79214.274493
2541.153790,0.000000,8438.347739,-76762.768900
2541.156359,296.082377,6069.688724,-80133.589091
2541.158927,296.082377,13471.748144,-79061.055394
2541.161495,-2220.617826,-7105.977043,-82431.875585
2541.164065,1332.370696,3552.988522,-76303.111601
2541.166634,-2960.823768,10658.965565,-74158.044206
2541.169204,0.000000,4293.194464,-78907.836294
2541.171773,444.123565,4145.153275,-81052.903688
2541.174342,2664.741391,6809.894666,-80440.027290
2541.176912,-740.205942,2072.576638,-79214.274493
2541.179481,740.205942,-3701.029710,-76762.768900
2541.182051,-1036.288319,2664.741391,-74617.701505
2541.184620,3108.864956,16432.571912,-75383.797003
2541.187189,-3256.906145,4145.153275,-81206.122788
2541.189759,1776.494261,8142.265362,-80440.027290
2541.192328,2220.617826,18653.189738,-77069.207099
2541.194898,-1480.411884,4145.153275,-77222.426198
2541.197467,-592.164754,8882.471304,-74924.139704
2541.200036,-148.041188,7994.224174,-77222.426198
2541.202606,2072.576638,-4441.235652,-82278.656485
2541.205175,888.247130,-8142.265362,-80746.465489
2541.207745,1776.494261,148.041188,-76609.549800
2541.210314,-740.205942,8290.306550,-74924.139704
2541.212883,1480.411884,-5033.400406,-77682.083497
2541.215453,1332.370696,-9326.594869,-77528.864398
2541.218022,1332.370696,-296.082377,-78601.398095
2541.220592,2072.576638,-7698.141797,-80133.589091
2541.223161,-3108.864956,3552.988522,-75690.235202
2541.225731,-1184.329507,6957.935855,-76762.768900
2541.228300,1924.535449,-6217.729913,-80286.808190
2541.230869,-888.247130,-1480.411884,-78294.959896
2541.233439,2220.617826,3404.947333,-77069.207099
2541.236008,-2220.617826,-3849.070898,-75383.797003
2541.238578,-1628.453072,-9326.594869,-78754.617194
2541.241147,-296.082377,-888.247130,-77069.207099
2541.243716,888.247130,-17172.777854,-82431.875585
2541.246286,-2220.617826,-1924.535449,-79061.055394
2541.248856,-2072.576638,-3701.029710,-80286.808190
2541.251425,1332.370696,-7550.100608,-79061.055394
2541.253995,-1332.370696,-2516.700203,-75383.797003
2541.256564,-296.082377,3404.947333,-77375.645298
2541.259134,740.205942,2368.659014,-79367.493593
2541.261703,592.164754,8734.430116,-78141.740796
2541.264273,-148.041188,16136.489536,-79214.274493
2541.266843,-4737.318029,-11399.171507,-84423.723880
2541.269412,2516.700203,7550.100608,-74311.263306
2541.271982,-444.123565,7994.224174,-76456.330700
2541.274551,-740.205942,888.247130,-78907.836294
2541.277121,296.082377,6365.771101,-78294.959896
2541.279691,2960.823768,6957.935855,-79673.931792
2541.282260,-1184.329507,3256.906145,-78754.617194
2541.284830,740.205942,-3997.112087,-79520.712692
2541.287399,0.000000,4589.276840,-74924.139704
2541.289969,2664.741391,14063.912898,-75690.235202
2541.292539,-3404.947333,3997.112087,-81359.341888
2541.295108,-2960.823768,9622.677246,-80593.246390
2541.297678,888.247130,12731.542202,-78294.959896
2541.300247,2220.617826,8586.388927,-74004.825107
2541.302817,-592.164754,10214.842000,-74924.139704
2541.305387,296.082377,3108.864956,-76303.111601
2541.307956,3256.906145,5921.647536,-78601.398095
2541.310526,-444.123565,-11843.295072,-83657.628382
2541.313095,3256.906145,-1776.494261,-76762.768900
2541.315665,-2664.741391,10658.965565,-74770.920605
2541.318235,-148.041188,-3108.864956,-78141.740796
2541.320804,4293.194464,-13619.789333,-76456.330700
2541.323374,888.247130,-3256.906145,-77375.645298
2541.325943,444.123565,-444.123565,-78141.740796
2541.328513,-2368.659014,4145.153275,-78448.178995
2541.331082,3552.988522,-7105.977043,-79980.369991
2541.333652,3552.988522,-3849.070898,-77682.083497
2541.336222,-2664.741391,3108.864956,-77069.207099
2541.338791,-2516.700203,-1480.411884,-78907.836294
2541.341361,5181.441594,-1332.370696,-75230.577904
2541.343930,0.000000,-6661.853478,-78141.740796
2541.346500,-1332.370696,-3997.112087,-76456.330700
2541.349070,-1184.329507,-13915.871710,-81052.903688
2541.351640,444.123565,-7846.182985,-79980.369991
2541.354210,-2516.700203,6069.688724,-76915.987999
2541.356780,1480.411884,-14656.077652,-82431.875585
2541.359350,1628.453072,1184.329507,-73851.606007
2541.361919,592.164754,6957.935855,-75537.016103
2541.364489,-1628.453072,5773.606348,-77682.083497
2541.367059,-296.082377,11103.089130,-78294.959896
2541.369629,1036.288319,5625.565159,-82891.532884
2541.372199,-1036.288319,1628.453072,-78601.398095
2541.374769,-1480.411884,3404.947333,-77222.426198
2541.377339,-1924.535449,7105.977043,-75537.016103
2541.379909,-888.247130,8142.265362,-77222.426198
2541.382479,-296.082377,2960.823768,-80593.246390
2541.385048,1332.370696,9622.677246,-79673.931792
2541.387618,1184.329507,-2368.659014,-83044.751983
2541.390188,740.205942,-1332.370696,-77682.083497
2541.392758,-888.247130,9622.677246,-74464.482406
2541.395328,-1776.494261,9770.718434,-78294.959896
2541.397898,4589.276840,5773.606348,-79520.712692
2541.400468,-2516.700203,9622.677246,-81972.218286
2541.403038,-2664.741391,9326.594869,-78601.398095
2541.405608,3997.112087,11399.171507,-73085.510509
2541.408177,-1184.329507,15100.201217,-74617.701505
2541.410747,1628.453072,-1924.535449,-78601.398095
2541.413317,1776.494261,-444.123565,-80593.246390
2541.415887,-296.082377,-2960.823768,-80746.465489
2541.418457,-1480.411884,444.123565,-77222.426198
2541.421027,-592.164754,4737.318029,-74770.920605
2541.423597,148.041188,3404.947333,-76762.768900
2541.426167,888.247130,-21762.054695,-80133.589091
2541.428737,592.164754,6365.771101,-75843.454302
2541.431306,1184.329507,-8290.306550,-81818.999186
2541.433876,-888.247130,6661.853478,-73545.167808
2541.436446,148.041188,888.247130,-80746.465489
2541.439016,2072.576638,-9918.759623,-80440.027290
2541.441586,2368.659014,6661.853478,-74924.139704
2541.444156,-2664.741391,4441.235652,-78294.959896
2541.446726,4441.235652,-15396.283594,-76456.330700
2541.449296,-2516.700203,888.247130,-74004.825107
2541.451859,-3404.947333,-10066.800811,-82585.094684
2541.454428,2368.659014,-12287.418637,-78754.617194
2541.456997,592.164754,5921.647536,-81359.341888
2541.459567,-2516.700203,-11547.212695,-81206.122788
2541.462136,-1480.411884,2368.659014,-75537.016103
2541.464705,-1184.329507,-8734.430116,-79061.055394
2541.467274,-444.123565,9030.512492,-73085.510509
2541.469843,-1332.370696,10362.883188,-78907.836294
2541.472413,740.205942,6069.688724,-81972.218286
2541.474982,-444.123565,4737.318029,-78601.398095
2541.477551,2960.823768,2220.617826,-80286.808190
2541.480120,-4885.359217,5181.441594,-74924.139704
2541.482689,-2664.741391,8734.430116,-76303.111601
2541.485258,1776.494261,5921.647536,-77988.521696
2541.487828,592.164754,8290.306550,-79214.274493
2541.490397,0.000000,-5625.565159,-83197.971083
2541.492966,148.041188,6809.894666,-73851.606007
2541.495535,-2072.576638,11991.336260,-73085.510509
2541.498104,-3108.864956,296.082377,-78754.617194
2541.500674,6957.935855,13027.624579,-77375.645298
2541.503243,-1776.494261,6809.894666,-83657.628382
2541.505812,592.164754,4145.153275,-78754.617194
2541.508381,1776.494261,19393.395680,-74924.139704
2541.510950,-444.123565,5033.400406,-76456.330700
2541.513520,2368.659014,7402.059420,-73391.948708
2541.516089,1628.453072,-1184.329507,-80899.684589
2541.518658,-1184.329507,-10658.965565,-81052.903688
2541.521227,4885.359217,-10214.842000,-80286.808190
2541.523796,-2812.782580,6513.812290,-74158.044206
2541.526365,-592.164754,8734.430116,-76303.111601
2541.528935,592.164754,-18801.230927,-80440.027290
2541.531504,444.123565,-7698.141797,-78448.178995
2541.534073,2368.659014,-4885.359217,-77528.864398
2541.536642,-2072.576638,11991.336260,-75383.797003
2541.539211,1332.370696,-10362.883188,-81818.999186
2541.541781,4145.153275,-4589.276840,-77222.426198
2541.544350,-2516.700203,6365.771101,-78754.617194
2541.546919,-3849.070898,-444.123565,-78294.959896
2541.549488,2516.700203,-5625.565159,-75690.235202
2541.552057,-3256.906145,4441.235652,-73851.606007
2541.554626,1628.453072,-19837.519246,-81052.903688
2541.557195,-148.041188,-5921.647536,-76303.111601
2541.559764,1184.329507,7994.224174,-82891.532884
2541.562332,-2812.782580,-20873.807564,-81665.780087
2541.564901,1332.370696,9918.759623,-74311.263306
2541.567470,-4293.194464,-5033.400406,-77682.083497
2541.570038,-592.164754,1924.535449,-73238.729609
2541.572607,1332.370696,19245.354492,-78754.617194
2541.575176,-1776.494261,3849.070898,-81359.341888
2541.577745,-2516.700203,-2664.741391,-82125.437386
2541.580313,1036.288319,10214.842000,-77988.521696
2541.582882,-444.123565,1480.411884,-74924.139704
2541.585451,888.247130,7994.224174,-75537.016103
2541.588019,-1480.411884,5625.565159,-79827.150892
2541.590588,-4441.235652,296.082377,-81665.780087
2541.593157,1184.329507,8142.265362,-79827.150892
2541.595726,-2960.823768,-296.082377,-76762.768900
2541.598294,1036.288319,2960.823768,-75690.235202
2541.600863,-4885.359217,9474.636058,-76456.330700
2541.603432,6957.935855,3849.070898,-79367.493593
2541.606001,3997.112087,7550.100608,-81512.560987
2541.608569,-1332.370696,10214.842000,-78294.959896
2541.611138,740.205942,10807.006753,-75843.454302
2541.613707,148.041188,13323.706956,-72625.853210
2541.616275,3552.988522,1184.329507,-76915.987999
2541.618844,148.041188,3849.070898,-79214.274493
2541.621413,-1776.494261,-2664.741391,-83351.190182
2541.623982,-148.041188,-14508.036463,-82585.094684
2541.626550,4589.276840,15100.201217,-69561.471218
2541.629119,-2220.617826,-1924.535449,-78141.740796
2541.631688,-2664.741391,-11547.212695,-79214.274493
2541.634257,4293.194464,-8142.265362,-76609.549800
2541.636825,1776.494261,-2516.700203,-79367.493593
2541.639394,-1480.411884,7402.059420,-74924.139704
2541.641963,-1184.329507,-3997.112087,-81052.903688
2541.644531,592.164754,-3108.864956,-80286.808190
2541.647100,0.000000,9178.553681,-75690.235202
2541.649669,-2960.823768,-13471.748144,-81512.560987
2541.652238,-3108.864956,-2368.659014,-72166.195912
2541.654806,-1480.411884,-3849.070898,-76456.330700
2541.657375,444.123565,-6809.894666,-78907.836294
2541.659944,2516.700203,-12435.459826,-81665.780087
2541.662512,-1776.494261,592.164754,-80440.027290
2541.665081,2812.782580,2220.617826,-76762.768900
2541.667650,-2812.782580,-7846.182985,-76915.987999
2541.670219,1628.453072,7846.182985,-72625.853210
2541.672787,-4293.194464,12139.377449,-74617.701505
2541.675356,0.000000,9474.636058,-79520.712692
2541.677925,1628.453072,5329.482782,-82431.875585
2541.680493,-888.247130,-592.164754,-81359.341888
2541.683062,0.000000,9178.553681,-75690.235202
2541.685631,-3256.906145,9918.759623,-75383.797003
2541.688199,-888.247130,-1480.411884,-77988.521696
2541.690768,2516.700203,11991.336260,-79827.150892
2541.693337,-1184.329507,7402.059420,-80899.684589
2541.695905,-740.205942,-4885.359217,-79827.150892
2541.698474,5181.441594,7994.224174,-74464.482406
2541.701043,-6513.812290,4293.194464,-77375.645298
2541.703612,6661.853478,1480.411884,-78907.836294
2541.706180,444.123565,21614.013506,-78448.178995
2541.708749,-740.205942,-3997.112087,-85189.819378
2541.711318,3108.864956,17912.983796,-73698.386908
2541.713886,-2072.576638,15988.448347,-76149.892501
2541.716455,-1776.494261,-1628.453072,-74617.701505
2541.719024,5477.523971,296.082377,-76456.330700
2541.721592,-1628.453072,-13027.624579,-82891.532884
2541.724161,2812.782580,-5477.523971,-78907.836294
2541.726730,-296.082377,2960.823768,-77528.864398
2541.729299,1332.370696,7698.141797,-76456.330700
2541.731867,3404.947333,-14656.077652,-78601.398095
2541.734436,148.041188,-8586.388927,-78294.959896
2541.737005,296.082377,-8586.388927,-75383.797003
2541.739573,-1628.453072,13323.706956,-74311.263306
2541.742142,740.205942,-11103.089130,-82585.094684
2541.744711,3404.947333,-4293.194464,-80286.808190
2541.747279,-148.041188,2516.700203,-78141.740796
2541.749848,-888.247130,-5033.400406,-78294.959896
2541.752417,-1628.453072,-148.041188,-73238.729609
2541.754985,888.247130,-14656.077652,-79061.055394
2541.757554,-444.123565,296.082377,-74617.701505
2541.760122,-1036.288319,-9474.636058,-83044.751983
2541.762690,740.205942,-7105.977043,-81972.218286
2541.765258,1628.453072,-1776.494261,-79367.493593
2541.767826,-3552.988522,-8438.347739,-79980.369991
2541.770393,3997.112087,1924.535449,-72319.415011
2541.772961,-2516.700203,9770.718434,-73085.510509
2541.775529,0.000000,12435.459826,-79061.055394
2541.778097,592.164754,4441.235652,-82585.094684
2541.780665,148.041188,-1628.453072,-83351.190182
2541.783233,3997.112087,13175.665768,-74617.701505
2541.785800,-3701.029710,9326.594869,-75996.673402
2541.788368,-2220.617826,444.123565,-77375.645298
2541.790936,2072.576638,6809.894666,-77988.521696
2541.793504,-1924.535449,9030.512492,-81665.780087
2541.796072,-2072.576638,296.082377,-80440.027290
2541.798640,2664.741391,5477.523971,-76149.892501
2541.801208,-5181.441594,9326.594869,-76915.987999
2541.803775,3404.947333,2368.659014,-78448.178995
2541.806343,296.082377,21317.931130,-77988.521696
2541.808911,-2812.782580,-4441.235652,-86568.791274
2541.811479,1924.535449,11547.212695,-74617.701505
2541.814047,-2072.576638,20429.683999,-74158.044206
2541.816615,1036.288319,0.000000,-75077.358804
2541.819182,1628.453072,7550.100608,-75690.235202
2541.821750,-3997.112087,-18653.189738,-85955.914876
2541.824318,5329.482782,-9622.677246,-79214.274493
2541.826886,-148.041188,7254.018232,-75383.797003
2541.829454,-2368.659014,2960.823768,-77835.302597
2541.832022,4441.235652,-11547.212695,-76762.768900
2541.834590,296.082377,-6809.894666,-77988.521696
2541.837157,1332.370696,-12287.418637,-79367.493593
2541.839725,296.082377,12583.501014,-72932.291410
2541.842293,-1184.329507,-5329.482782,-81665.780087
2541.844861,3552.988522,-2368.659014,-77069.207099
2541.847429,0.000000,-296.082377,-79214.274493
2541.849997,-4145.153275,-1332.370696,-78907.836294
2541.852564,1184.329507,-7994.224174,-76915.987999
2541.855132,2220.617826,-17616.901420,-77682.083497
2541.857700,888.247130,2516.700203,-74311.263306
2541.860268,-2072.576638,-3256.906145,-81359.341888
2541.862835,-888.247130,-10066.800811,-84270.504780
2541.865403,4293.194464,-4737.318029,-79520.712692
2541.867970,-1480.411884,-11695.253884,-77682.083497
2541.870537,0.000000,13767.830521,-71400.100414
2541.873104,-4293.194464,3997.112087,-76456.330700
2541.875672,2812.782580,14804.118840,-76609.549800
2541.878239,-444.123565,11547.212695,-82278.656485
2541.880806,296.082377,-7254.018232,-85496.257577
2541.883373,2220.617826,5181.441594,-74617.701505
2541.885941,-3701.029710,14804.118840,-73545.167808
2541.888508,888.247130,-148.041188,-77375.645298
2541.891075,592.164754,2220.617826,-80133.589091
2541.893643,-2516.700203,2220.617826,-81818.999186
2541.896210,-148.041188,13471.748144,-76915.987999
2541.898777,-2812.782580,296.082377,-79367.493593
2541.901344,1924.535449,5773.606348,-74770.920605
2541.903912,-444.123565,20429.683999,-75383.797003
2541.906479,-296.082377,-3108.864956,-84270.504780
2541.909046,148.041188,1184.329507,-79061.055394
2541.911614,-296.082377,17912.983796,-75537.016103
2541.914181,-740.205942,10214.842000,-74617.701505
2541.916748,444.123565,7994.224174,-72779.072310
2541.919315,-1480.411884,-8142.265362,-81206.122788
2541.921883,-888.247130,-6661.853478,-79673.931792
2541.924450,-740.205942,-15100.201217,-84576.942979
2541.927017,1924.535449,4589.276840,-74004.825107
2541.929585,2072.576638,9474.636058,-75383.797003
2541.932152,-592.164754,-17764.942608,-81052.903688
2541.934719,3404.947333,-7550.100608,-75996.673402
2541.937286,-1776.494261,-1036.288319,-77528.864398
2541.939854,148.041188,7402.059420,-75230.577904
2541.942421,-444.123565,-5921.647536,-79061.055394
2541.944988,296.082377,592.164754,-81665.780087
2541.947556,-1628.453072,-444.123565,-78754.617194
2541.950123,3108.864956,-7550.100608,-78294.959896
2541.952690,2220.617826,-6957.935855,-74617.701505
2541.955257,1480.411884,-10362.883188,-75537.016103
2541.957825,888.247130,-7105.977043,-77988.521696
2541.960392,2368.659014,7105.977043,-79214.274493
2541.962959,-1924.535449,-14063.912898,-85649.476676
2541.965526,1924.535449,-6661.853478,-80593.246390
2541.968093,2664.741391,-3404.947333,-73698.386908
2541.970661,1480.411884,14211.954086,-69255.033019
2541.973228,-888.247130,16580.613101,-74617.701505
2541.975795,-1332.370696,2516.700203,-83657.628382
2541.978362,148.041188,4145.153275,-83197.971083
2541.980929,3552.988522,12287.418637,-79520.712692
2541.983496,-2368.659014,-2368.659014,-77528.864398
2541.986063,4441.235652,18505.148550,-70021.128517
2541.988631,-2664.741391,-148.041188,-78294.959896
2541.991198,-1924.535449,-10066.800811,-84883.381178
2541.993765,888.247130,12583.501014,-77835.302597
2541.996332,592.164754,4441.235652,-79367.493593
2541.998899,740.205942,7402.059420,-74158.044206
2542.001466,-148.041188,11251.130318,-77069.207099
2542.004033,1480.411884,9622.677246,-78601.398095
2542.006600,-1776.494261,8290.306550,-80746.465489
2542.009168,444.123565,1036.288319,-81052.903688
2542.011735,888.247130,18505.148550,-73391.948708
2542.014302,3997.112087,6069.688724,-75383.797003
2542.016869,-1628.453072,-740.205942,-78141.740796
2542.019436,-2072.576638,-11843.295072,-82585.094684
2542.022003,148.041188,-23094.425390,-83657.628382
2542.024570,2220.617826,14804.118840,-74770.920605
2542.027138,-5181.441594,-1924.535449,-81052.903688
2542.029705,-888.247130,-10955.047942,-77069.207099
2542.032272,3108.864956,-4885.359217,-75843.454302
2542.034839,-2368.659014,-13619.789333,-77375.645298
2542.037406,-1036.288319,10510.924376,-75537.016103
2542.039973,-1776.494261,-2516.700203,-82585.094684
2542.042540,1924.535449,-3108.864956,-79673.931792
2542.045108,-592.164754,3849.070898,-77835.302597
2542.047675,-888.247130,-2516.700203,-78448.178995
2542.050242,-148.041188,-17468.860231,-75383.797003
2542.052809,0.000000,-2368.659014,-71859.757712
2542.055376,1480.411884,-7254.018232,-79673.931792
2542.057943,-592.164754,0.000000,-79520.712692
2542.060510,1776.494261,-5477.523971,-85343.038477
2542.063077,3849.070898,-10510.924376,-79827.150892
2542.065645,3108.864956,-1184.329507,-74770.920605
2542.068211,1036.288319,7105.977043,-70634.004916
2542.070777,592.164754,16432.571912,-71706.538613
2542.073343,1924.535449,15988.448347,-79827.150892
2542.075909,-3701.029710,-5033.400406,-86568.791274
2542.078475,1184.329507,11547.212695,-78448.178995
2542.081042,148.041188,9474.636058,-76762.768900
2542.083608,2368.659014,3552.988522,-74311.263306
2542.086174,-592.164754,3552.988522,-76762.768900
2542.088740,-592.164754,-2220.617826,-82891.532884
2542.091306,592.164754,3552.988522,-79214.274493
2542.093872,0.000000,4441.235652,-77528.864398
2542.096438,-3701.029710,8734.430116,-75537.016103
2542.099005,1332.370696,16876.695478,-75077.358804
2542.101571,-1924.535449,9622.677246,-81665.780087
2542.104137,1628.453072,2812.782580,-83044.751983
2542.106703,-592.164754,592.164754,-78907.836294
2542.109269,-444.123565,22798.343014,-71553.319513
2542.111835,-1924.535449,10362.883188,-73391.948708
2542.114402,1036.288319,-6217.729913,-78754.617194
2542.116968,296.082377,-14211.954086,-82278.656485
2542.119534,-3108.864956,-11399.171507,-82891.532884
2542.122100,3997.112087,3108.864956,-77069.207099
2542.124666,-2664.741391,11695.253884,-75383.797003
2542.127232,-888.247130,-14656.077652,-79520.712692
2542.129798,2516.700203,-7994.224174,-75996.673402
2542.132365,1036.288319,-9918.759623,-78448.178995
2542.134931,1924.535449,9030.512492,-73391.948708
2542.137497,-592.164754,6513.812290,-79367.493593
2542.140063,-444.123565,-5625.565159,-83044.751983
2542.142629,2516.700203,296.082377,-79214.274493
2542.145195,3256.906145,-10955.047942,-77222.426198
2542.147762,0.000000,-12583.501014,-73391.948708
2542.150328,-2072.576638,-4293.194464,-74311.263306
2542.152894,2812.782580,-9326.594869,-79367.493593
2542.155460,740.205942,-444.123565,-81818.999186
2542.158026,1480.411884,-4441.235652,-84270.504780
2542.160592,-4293.194464,-14952.160028,-81512.560987
2542.163159,3701.029710,8142.265362,-72472.634111
2542.165725,-1480.411884,7105.977043,-72625.853210
2542.168291,148.041188,18061.024985,-72012.976812
2542.170857,444.123565,9622.677246,-82738.313784
2542.173422,740.205942,-5625.565159,-85189.819378
2542.175988,2368.659014,11251.130318,-79980.369991
2542.178554,740.205942,9622.677246,-76762.768900
2542.181119,-888.247130,9474.636058,-74004.825107
2542.183685,-148.041188,-3404.947333,-80746.465489
2542.186251,2072.576638,-3849.070898,-80440.027290
2542.188816,-1776.494261,6217.729913,-78141.740796
2542.191382,-3552.988522,13915.871710,-77528.864398
2542.193948,-1628.453072,444.123565,-77988.521696
2542.196513,5773.606348,18505.148550,-75690.235202
2542.199079,-3701.029710,15248.242405,-79827.150892
2542.201645,-888.247130,-4737.318029,-86415.572174
2542.204210,1036.288319,12583.501014,-77222.426198
2542.206776,-1924.535449,10510.924376,-73698.386908
2542.209342,1332.370696,9918.759623,-72779.072310
2542.211907,-2072.576638,-12583.501014,-80593.246390
2542.214473,2664.741391,-22946.384202,-82585.094684
2542.217039,148.041188,11251.130318,-77375.645298
2542.219605,-1332.370696,-7402.059420,-84117.285680
2542.222170,2368.659014,2516.700203,-74464.482406
2542.224736,296.082377,-4885.359217,-75843.454302
2542.227302,1332.370696,-15100.201217,-76762.768900
2542.229867,592.164754,-3108.864956,-75690.235202
2542.232433,-296.082377,148.041188,-79520.712692
2542.234999,1776.494261,9030.512492,-77835.302597
2542.237564,-2072.576638,148.041188,-81972.218286
2542.240130,2812.782580,-6069.688724,-81206.122788
2542.242696,-1480.411884,-10658.965565,-75690.235202
2542.245261,148.041188,-14952.160028,-74004.825107
2542.247827,592.164754,-8438.347739,-71859.757712
2542.250393,0.000000,5329.482782,-76915.987999
2542.252958,-592.164754,-5033.400406,-85649.476676
2542.255524,888.247130,-7994.224174,-86568.791274
2542.258090,740.205942,-10066.800811,-80746.465489
2542.260656,-1776.494261,15692.365970,-69408.252119
2542.263221,-1628.453072,12435.459826,-70634.004916
2542.265787,1628.453072,8734.430116,-76456.330700
2542.268353,-2220.617826,592.164754,-84883.381178
2542.270918,2220.617826,7105.977043,-83964.066581
2542.273483,-2664.741391,9326.594869,-79673.931792
2542.276047,888.247130,10807.006753,-75383.797003
2542.278612,-740.205942,8882.471304,-74004.825107
2542.281177,-1628.453072,-7402.059420,-81512.560987
2542.283741,2072.576638,-740.205942,-78754.617194
2542.286306,-1480.411884,6809.894666,-77682.083497
2542.288870,2368.659014,8142.265362,-76915.987999
2542.291435,-592.164754,15100.201217,-76609.549800
2542.293999,-592.164754,11695.253884,-80286.808190
2542.296564,2072.576638,2664.741391,-84423.723880
2542.299128,-2072.576638,4293.194464,-79214.274493
2542.301693,-2072.576638,7846.182985,-76149.892501
2542.304258,-1036.288319,22206.178260,-68642.156621
2542.306822,-2664.741391,-11103.089130,-79214.274493
2542.309387,3552.988522,-10362.883188,-79980.369991
2542.311951,-2220.617826,-16876.695478,-85955.914876
2542.314516,6661.853478,-2960.823768,-79980.369991
2542.317080,-1036.288319,8438.347739,-73545.167808
2542.319645,4441.235652,-6809.894666,-76456.330700
2542.322210,-888.247130,-7994.224174,-75843.454302
2542.324774,-740.205942,-15988.448347,-78601.398095
2542.327339,3701.029710,4885.359217,-74617.701505
2542.329903,1776.494261,10362.883188,-77835.302597
2542.332468,-2220.617826,-740.205942,-84730.162079
2542.335032,3701.029710,-6957.935855,-83044.751983
2542.337597,148.041188,-3701.029710,-77222.426198
2542.340161,-1480.411884,-16136.489536,-77069.207099
2542.342726,1036.288319,-15248.242405,-72932.291410
2542.345291,1036.288319,7254.018232,-73085.510509
2542.347855,592.164754,-2812.782580,-84270.504780
2542.350420,296.082377,-11547.212695,-85802.695776
2542.352984,296.082377,-888.247130,-82125.437386
2542.355549,2368.659014,-148.041188,-73545.167808
2542.358113,-1924.535449,27387.619854,-67263.184724
2542.360678,-148.041188,6217.729913,-78141.740796
2542.363243,-888.247130,-1036.288319,-79520.712692
2542.365807,3256.906145,10807.006753,-82278.656485
2542.368372,-1184.329507,1480.411884,-81359.341888
2542.370936,1184.329507,17320.819043,-75077.358804
2542.373501,-740.205942,8882.471304,-77682.083497
2542.376065,-2368.659014,-1332.370696,-79367.493593
2542.378628,-2516.700203,-6809.894666,-79367.493593
2542.381192,-148.041188,148.041188,-77375.645298
2542.383756,-1924.535449,21169.889941,-73238.729609
2542.386320,-444.123565,9918.759623,-80133.589091
2542.388884,592.164754,15544.324782,-77222.426198
2542.391448,1480.411884,12287.418637,-83044.751983
2542.394012,-2368.659014,-10510.924376,-83504.409282
2542.396575,888.247130,12583.501014,-73238.729609
2542.399139,3552.988522,21169.889941,-70174.347617
2542.401703,-3701.029710,-10658.965565,-77988.521696
2542.404267,1924.535449,-14952.160028,-81665.780087
2542.406831,-3701.029710,-6217.729913,-83810.847481
2542.409395,5033.400406,-148.041188,-80440.027290
2542.411958,-2220.617826,-4145.153275,-76915.987999
2542.414522,1628.453072,2220.617826,-72472.634111
2542.417086,-2516.700203,-11991.336260,-76762.768900
2542.419650,-1036.288319,-12435.459826,-77988.521696
2542.422214,-296.082377,2072.576638,-76609.549800
2542.424778,1924.535449,7402.059420,-78294.959896
2542.427341,2368.659014,1776.494261,-80593.246390
2542.429905,-1776.494261,-5033.400406,-81206.122788
2542.432469,1184.329507,-12879.583391,-77528.864398
2542.435033,148.041188,-16728.654289,-75537.016103
2542.437597,2368.659014,-4589.276840,-70634.004916
2542.440161,-3849.070898,3404.947333,-76609.549800
2542.442724,4145.153275,-3404.947333,-83351.190182
2542.445288,-6069.688724,-1924.535449,-84883.381178
2542.447852,4589.276840,-15988.448347,-84883.381178
2542.450416,-1628.453072,17468.860231,-70021.128517
2542.452980,740.205942,20577.725188,-69101.813920
2542.455544,740.205942,8734.430116,-76456.330700
2542.458108,-592.164754,-1184.329507,-82431.875585
2542.460671,1776.494261,-2072.576638,-84883.381178
2542.463235,2664.741391,25315.043216,-75077.358804
2542.465799,148.041188,5033.400406,-77988.521696
2542.468363,-740.205942,2960.823768,-76915.987999
2542.470927,-148.041188,-1480.411884,-78907.836294
2542.473491,-592.164754,-8882.471304,-79980.369991
2542.476054,4145.153275,11251.130318,-75230.577904
2542.478615,-4441.235652,10214.842000,-77988.521696
2542.481178,1184.329507,21762.054695,-75690.235202
2542.483742,1184.329507,22206.178260,-78601.398095
2542.486306,-1480.411884,-11399.171507,-86875.229473
2542.488869,3108.864956,2960.823768,-73698.386908
2542.491433,-592.164754,21465.972318,-71859.757712
2542.493997,-296.082377,-5033.400406,-75690.235202
2542.496560,4293.194464,-1924.535449,-76609.549800
2542.499124,-1628.453072,-18949.272115,-86722.010374
2542.501688,3256.906145,-8438.347739,-80286.808190
2542.504251,296.082377,9918.759623,-78601.398095
2542.506815,-1332.370696,-5921.647536,-78601.398095
2542.509379,3256.906145,-4737.318029,-72779.072310
2542.511942,-1776.494261,-15544.324782,-78601.398095
2542.514506,2368.659014,0.000000,-75383.797003
2542.517070,444.123565,6513.812290,-78907.836294
2542.519633,0.000000,2960.823768,-83810.847481
2542.522197,2072.576638,1332.370696,-79980.369991
2542.524761,740.205942,-15840.407159,-81052.903688
2542.527324,-296.082377,-13175.665768,-74617.701505
2542.529888,-740.205942,-11103.089130,-73851.606007
2542.532452,592.164754,-1184.329507,-73545.167808
2542.535015,2516.700203,2664.741391,-77222.426198
2542.537579,-1480.411884,-1480.411884,-85036.600278
2542.540142,3256.906145,-13915.871710,-86262.353075
2542.542706,0.000000,13915.871710,-73698.386908
2542.545270,-296.082377,15988.448347,-71706.538613
2542.547833,1332.370696,17172.777854,-70940.443115
2542.550397,-4145.153275,-5773.606348,-81359.341888
2542.552961,1924.535449,8438.347739,-80899.684589
2542.555524,-888.247130,2516.700203,-81818.999186
2542.558088,296.082377,14063.912898,-76915.987999
2542.560651,888.247130,15396.283594,-75690.235202
2542.563214,-1184.329507,4589.276840,-79520.712692
2542.565776,-296.082377,-4293.194464,-80286.808190
2542.568339,2812.782580,-3404.947333,-77835.302597
2542.570902,-1924.535449,16728.654289,-73851.606007
2542.573465,740.205942,19541.436869,-77528.864398
2542.576028,-2220.617826,14063.912898,-80899.684589
2542.578590,3108.864956,4441.235652,-82738.313784
2542.581153,-1628.453072,5773.606348,-78601.398095
2542.583716,-1184.329507,3701.029710,-75230.577904
2542.586279,592.164754,11695.253884,-70174.347617
2542.588842,-1184.329507,-6957.935855,-76149.892501
2542.591404,-148.041188,-10807.006753,-82738.313784
2542.593967,1184.329507,-14063.912898,-84730.162079
2542.596530,-2664.741391,10955.047942,-78754.617194
2542.599093,444.123565,-6069.688724,-79520.712692
2542.601656,-3108.864956,1184.329507,-71093.662214
2542.604218,1036.288319,-9178.553681,-77988.521696
2542.606781,1332.370696,-15544.324782,-77375.645298
2542.609344,296.082377,1332.370696,-77069.207099
2542.611907,1628.453072,7698.141797,-79673.931792
2542.614469,1036.288319,5625.565159,-80440.027290
2542.617032,-1184.329507,-5181.441594,-82585.094684
2542.619595,296.082377,-18209.066173,-78754.617194
2542.622158,2368.659014,-16284.530724,-71859.757712
2542.624721,0.000000,2960.823768,-74158.044206
2542.627283,1480.411884,-3404.947333,-79367.493593
2542.629846,-1036.288319,2960.823768,-83504.409282
2542.632409,2516.700203,-13915.871710,-87947.763170
2542.634972,-1924.535449,8290.306550,-75537.016103
2542.637535,-1184.329507,15100.201217,-73851.606007
2542.640097,1776.494261,17320.819043,-69561.471218
2542.642660,-888.247130,2516.700203,-78141.740796
2542.645223,1332.370696,4145.153275,-82891.532884
2542.647786,1036.288319,3108.864956,-81052.903688
2542.650349,4145.153275,13027.624579,-77222.426198
2542.652911,1036.288319,14804.118840,-76149.892501
2542.655474,-5033.400406,-5033.400406,-80133.589091
2542.658037,888.247130,-1924.535449,-78448.178995
2542.660600,5181.441594,592.164754,-77222.426198
2542.663130,-1628.453072,6809.894666,-76303.111601
2542.665659,-2072.576638,26351.331535,-75690.235202
2542.668189,-296.082377,13471.748144,-80133.589091
2542.670719,2812.782580,5625.565159,-82585.094684
2542.673249,1036.288319,9622.677246,-77682.083497
2542.675779,-2516.700203,3256.906145,-75690.235202
2542.678309,444.123565,7402.059420,-70634.004916
2542.680839,1332.370696,-4441.235652,-74770.920605
2542.683369,-2812.782580,-15988.448347,-82431.875585
2542.685899,2960.823768,-12287.418637,-82738.313784
2542.688429,-2220.617826,7550.100608,-81206.122788
2542.690958,-1036.288319,-6069.688724,-80133.589091
2542.693488,3997.112087,3552.988522,-71093.662214
2542.696018,-4145.153275,-7105.977043,-75077.358804
2542.698548,-1184.329507,-12435.459826,-76609.549800
2542.701078,-1184.329507,-2072.576638,-79827.150892
2542.703608,-1036.288319,7402.059420,-80440.027290
2542.706138,3849.070898,12139.377449,-77835.302597
2542.708668,-2960.823768,-18357.107362,-83044.751983
2542.711198,2812.782580,-18061.024985,-77222.426198
2542.713727,592.164754,-7550.100608,-72012.976812
2542.716257,-2812.782580,-9918.759623,-75383.797003
2542.718787,2960.823768,7550.100608,-75230.577904
2542.721317,-3552.988522,-592.164754,-85036.600278
2542.723847,2664.741391,-17024.736666,-87334.886772
2542.726377,-2368.659014,15692.365970,-73391.948708
