#time,accel_x,accel_y,accel_z
2435.074700,-1036.288319,3404.947333,-82125.437386
2435.077217,1332.370696,1036.288319,-78601.398095
2435.079735,2072.576638,2664.741391,-77528.864398
2435.082252,-1332.370696,-15692.365970,-80133.589091
2435.084770,2220.617826,5329.482782,-73391.948708
2435.087287,-2072.576638,0.000000,-79214.274493
2435.089805,740.205942,3404.947333,-79367.493593
2435.092322,2516.700203,9474.636058,-81972.218286
2435.094840,-1480.411884,0.000000,-82431.875585
2435.097357,1480.411884,10510.924376,-77222.426198
2435.099942,-2960.823768,-1036.288319,-77069.207099
2435.102527,0.000000,6809.894666,-73545.167808
2435.105112,2220.617826,4589.276840,-78141.740796
2435.107697,-2072.576638,-1628.453072,-83810.847481
2435.110283,2960.823768,7846.182985,-83504.409282
2435.112868,-2368.659014,-1036.288319,-80746.465489
2435.115453,1628.453072,10362.883188,-75077.358804
2435.118038,-740.205942,3552.988522,-74464.482406
2435.120623,-1924.535449,5033.400406,-75690.235202
2435.123208,-592.164754,-740.205942,-80593.246390
2435.125793,592.164754,3997.112087,-82125.437386
2435.128378,740.205942,5625.565159,-82431.875585
2435.130963,-3108.864956,7105.977043,-78907.836294
2435.133548,-1332.370696,-2960.823768,-77682.083497
2435.136134,148.041188,2368.659014,-74158.044206
2435.138719,444.123565,8734.430116,-76303.111601
2435.141304,-1184.329507,6069.688724,-80286.808190
2435.143889,-1036.288319,17024.736666,-80440.027290
2435.146474,-1184.329507,3701.029710,-84883.381178
2435.149059,1184.329507,-8438.347739,-78907.836294
2435.151644,148.041188,1480.411884,-75077.358804
2435.154229,-2812.782580,21317.931130,-73085.510509
2435.156814,-1628.453072,5477.523971,-81665.780087
2435.159399,4293.194464,-2960.823768,-80286.808190
2435.161984,444.123565,14063.912898,-79827.150892
2435.164570,-3849.070898,-1924.535449,-82891.532884
2435.167155,2812.782580,-6513.812290,-76456.330700
2435.169740,3108.864956,9030.512492,-72012.976812
2435.172325,-1776.494261,9030.512492,-81512.560987
2435.174910,0.000000,-1628.453072,-81359.341888
2435.177495,2368.659014,3997.112087,-79520.712692
2435.180080,-3997.112087,-16136.489536,-83197.971083
2435.182665,-2072.576638,-10807.006753,-76915.987999
2435.185250,4441.235652,23390.507767,-70787.224015
2435.187835,-2664.741391,-3108.864956,-83197.971083
2435.190421,1332.370696,-8142.265362,-83197.971083
2435.193006,-444.123565,-9474.636058,-82125.437386
2435.195591,0.000000,-4885.359217,-77682.083497
2435.198176,-3108.864956,11843.295072,-72472.634111
2435.200761,888.247130,-8586.388927,-75843.454302
2435.203385,1480.411884,4441.235652,-77222.426198
2435.206008,-4441.235652,-13323.706956,-88407.420469
2435.208632,0.000000,-10214.842000,-86109.133975
2435.211256,2960.823768,16432.571912,-72166.195912
2435.213880,-4885.359217,-2812.782580,-77069.207099
2435.216504,1332.370696,-7254.018232,-74158.044206
2435.219127,-1628.453072,-3849.070898,-78448.178995
2435.221751,-2812.782580,-5773.606348,-85036.600278
2435.224375,2072.576638,10955.047942,-79980.369991
2435.226999,-2072.576638,2664.741391,-79520.712692
2435.229623,-740.205942,-2812.782580,-77682.083497
2435.232246,1480.411884,-4737.318029,-73545.167808
2435.234870,1924.535449,-3997.112087,-75843.454302
2435.237494,-2664.741391,4145.153275,-78907.836294
2435.240118,592.164754,-9770.718434,-84270.504780
2435.242742,-1776.494261,4737.318029,-79367.493593
2435.245365,1628.453072,-4589.276840,-79673.931792
2435.247989,592.164754,-10807.006753,-77069.207099
2435.250613,888.247130,2220.617826,-76456.330700
2435.253237,-1036.288319,-2664.741391,-78754.617194
2435.255860,888.247130,1480.411884,-79214.274493
2435.258484,-1628.453072,148.041188,-81052.903688
2435.261108,1480.411884,-8586.388927,-80746.465489
2435.263732,-444.123565,-3256.906145,-76609.549800
2435.266356,1036.288319,2812.782580,-78141.740796
2435.268979,444.123565,6513.812290,-79673.931792
2435.271603,1332.370696,444.123565,-81818.999186
2435.274227,2072.576638,-17172.777854,-79061.055394
2435.276851,2516.700203,16136.489536,-72012.976812
2435.279475,-4441.235652,11251.130318,-80133.589091
2435.282098,4145.153275,8882.471304,-77835.302597
2435.284722,2220.617826,11399.171507,-80746.465489
2435.287346,-1036.288319,-22058.137072,-87488.105872
2435.289970,148.041188,-1776.494261,-76303.111601
2435.292593,1332.370696,21169.889941,-71246.881314
2435.295217,-3849.070898,10658.965565,-76609.549800
2435.297841,1628.453072,296.082377,-79980.369991
2435.300465,-592.164754,-1924.535449,-82738.313784
2435.303089,148.041188,296.082377,-84576.942979
2435.305712,-296.082377,4737.318029,-77528.864398
2435.308355,148.041188,19837.519246,-72166.195912
2435.310998,0.000000,-3108.864956,-78294.959896
2435.313640,1036.288319,-7402.059420,-77988.521696
2435.316283,-1480.411884,9770.718434,-77988.521696
2435.318926,-2516.700203,7254.018232,-81665.780087
2435.321568,1628.453072,7994.224174,-80133.589091
2435.324211,0.000000,3849.070898,-75843.454302
2435.326854,-2220.617826,-6069.688724,-78907.836294
2435.329496,-296.082377,3108.864956,-77222.426198
2435.332139,-2072.576638,6069.688724,-80286.808190
2435.334781,740.205942,4885.359217,-80286.808190
2435.337424,-1480.411884,11103.089130,-79214.274493
2435.340067,-3256.906145,10214.842000,-80746.465489
2435.342709,-592.164754,-3256.906145,-78294.959896
2435.345352,2220.617826,4589.276840,-74311.263306
2435.347995,-3552.988522,6069.688724,-78907.836294
2435.350637,2072.576638,-1332.370696,-77988.521696
2435.353280,148.041188,20725.766376,-76609.549800
2435.355923,-1332.370696,3404.947333,-83197.971083
2435.358565,-888.247130,1776.494261,-78141.740796
2435.361208,-888.247130,6217.729913,-79367.493593
2435.363851,2072.576638,-3552.988522,-77682.083497
2435.366493,-296.082377,1924.535449,-76303.111601
2435.369136,-2516.700203,9030.512492,-77682.083497
2435.371778,-296.082377,13619.789333,-81665.780087
2435.374421,888.247130,1036.288319,-82278.656485
2435.377064,2368.659014,-4589.276840,-78907.836294
2435.379706,-1924.535449,-6809.894666,-77528.864398
2435.382349,148.041188,-16136.489536,-77682.083497
2435.384992,2072.576638,17468.860231,-71400.100414
2435.387634,-1924.535449,8142.265362,-82125.437386
2435.390277,-1628.453072,-2960.823768,-84730.162079
2435.392920,2220.617826,-13471.748144,-82431.875585
2435.395562,-888.247130,-2516.700203,-77222.426198
2435.398205,148.041188,6809.894666,-74004.825107
2435.400847,-1184.329507,-3404.947333,-75996.673402
2435.403490,3108.864956,148.041188,-79980.369991
2435.406133,1332.370696,-10955.047942,-87488.105872
2435.408775,-148.041188,-1036.288319,-81206.122788
2435.411418,1628.453072,5477.523971,-77375.645298
2435.414071,-2812.782580,3701.029710,-73238.729609
2435.416724,1332.370696,-5181.441594,-76762.768900
2435.419377,740.205942,-8438.347739,-79214.274493
2435.422030,2664.741391,3849.070898,-79673.931792
2435.424683,-1480.411884,6513.812290,-84423.723880
2435.427336,1332.370696,-1924.535449,-79673.931792
2435.429989,-1480.411884,296.082377,-77222.426198
2435.432642,1184.329507,-7550.100608,-75077.358804
2435.435296,148.041188,2960.823768,-74617.701505
2435.437949,-3404.947333,-7105.977043,-82278.656485
2435.440602,740.205942,1036.288319,-82125.437386
2435.443255,1628.453072,-3256.906145,-81206.122788
2435.445908,-444.123565,-5625.565159,-77528.864398
2435.448561,-444.123565,3997.112087,-75843.454302
2435.451214,-1776.494261,-6513.812290,-79520.712692
2435.453867,1480.411884,-11843.295072,-79673.931792
2435.456520,1184.329507,148.041188,-77375.645298
2435.459173,-2368.659014,3108.864956,-79520.712692
2435.461826,-296.082377,1036.288319,-82278.656485
2435.464479,-1776.494261,-3256.906145,-79980.369991
2435.467132,3404.947333,-1628.453072,-75996.673402
2435.469785,2812.782580,8734.430116,-78448.178995
2435.472438,-3997.112087,-20577.725188,-83351.190182
2435.475091,6365.771101,15248.242405,-72319.415011
2435.477744,-5329.482782,19541.436869,-78601.398095
2435.480397,-1184.329507,-1036.288319,-83197.971083
2435.483051,888.247130,-4737.318029,-79980.369991
2435.485704,-1776.494261,0.000000,-79367.493593
2435.488357,-444.123565,-2516.700203,-78141.740796
2435.491010,2664.741391,17468.860231,-71706.538613
2435.493663,-1628.453072,13471.748144,-77988.521696
2435.496316,-444.123565,-2368.659014,-83197.971083
2435.498969,1036.288319,-2368.659014,-80899.684589
2435.501622,296.082377,8290.306550,-80286.808190
2435.504275,-888.247130,1332.370696,-77069.207099
2435.506928,-148.041188,15248.242405,-74770.920605
2435.509581,1480.411884,740.205942,-77988.521696
2435.512234,-4441.235652,-17320.819043,-83810.847481
2435.514887,1036.288319,15988.448347,-77069.207099
2435.517540,-4293.194464,6217.729913,-82278.656485
2435.520097,2812.782580,6661.853478,-76303.111601
2435.522654,-2072.576638,-1036.288319,-78448.178995
2435.525211,2220.617826,-444.123565,-79673.931792
2435.527768,-3849.070898,3701.029710,-79061.055394
2435.530325,2516.700203,4885.359217,-79214.274493
2435.532882,-3108.864956,18209.066173,-77069.207099
2435.535439,592.164754,-740.205942,-82125.437386
2435.537996,444.123565,-3701.029710,-79214.274493
2435.540553,2516.700203,9030.512492,-77835.302597
2435.543110,-3256.906145,-4145.153275,-80746.465489
2435.545667,2072.576638,20429.683999,-74770.920605
2435.548224,-2072.576638,4737.318029,-81818.999186
2435.550781,-592.164754,-5033.400406,-79520.712692
2435.553338,-888.247130,16432.571912,-76762.768900
2435.555895,-1628.453072,-13767.830521,-82891.532884
2435.558451,2220.617826,8290.306550,-74158.044206
2435.561008,-3552.988522,12139.377449,-79827.150892
2435.563565,-3256.906145,1184.329507,-82891.532884
2435.566122,3997.112087,-1332.370696,-78754.617194
2435.568679,-296.082377,5477.523971,-76609.549800
2435.571236,-2516.700203,-12879.583391,-81818.999186
2435.573793,592.164754,-10658.965565,-75383.797003
2435.576350,-740.205942,15840.407159,-73238.729609
2435.578907,-2960.823768,7994.224174,-82278.656485
2435.581464,-1628.453072,-6217.729913,-83964.066581
2435.584021,2812.782580,-14211.954086,-79827.150892
2435.586578,444.123565,2220.617826,-75843.454302
2435.589135,-4145.153275,-6513.812290,-77222.426198
2435.591692,-740.205942,740.205942,-76149.892501
2435.594249,296.082377,2960.823768,-81052.903688
2435.596806,-1036.288319,-17764.942608,-87181.667672
2435.599363,2812.782580,444.123565,-77528.864398
2435.601920,-1332.370696,6957.935855,-77682.083497
2435.604477,-1480.411884,-1776.494261,-76149.892501
2435.607034,1036.288319,-1776.494261,-74770.920605
2435.609591,148.041188,-8438.347739,-79980.369991
2435.612147,-592.164754,-1332.370696,-83964.066581
2435.614704,-592.164754,7994.224174,-80746.465489
2435.617261,-1628.453072,296.082377,-78448.178995
2435.619818,1480.411884,-4737.318029,-75537.016103
2435.622405,1184.329507,-7846.182985,-76762.768900
2435.624991,-1628.453072,148.041188,-78448.178995
2435.627577,-444.123565,-9622.677246,-81512.560987
2435.630163,2812.782580,2368.659014,-78907.836294
2435.632750,-1480.411884,6957.935855,-79980.369991
2435.635336,-2220.617826,-10807.006753,-81206.122788
2435.637922,2072.576638,3108.864956,-74158.044206
2435.640509,0.000000,-14359.995275,-79980.369991
2435.643095,-2220.617826,-10362.883188,-79673.931792
2435.645681,3552.988522,8290.306550,-75537.016103
2435.648267,-2812.782580,2220.617826,-81818.999186
2435.650854,-1924.535449,1036.288319,-83351.190182
2435.653440,2368.659014,-11991.336260,-78448.178995
2435.656026,0.000000,8734.430116,-72932.291410
2435.658613,-4145.153275,-14804.118840,-81665.780087
2435.661199,6069.688724,9326.594869,-75383.797003
2435.663785,1628.453072,25315.043216,-78754.617194
2435.666371,-3849.070898,-2220.617826,-85189.819378
2435.668958,0.000000,3404.947333,-81512.560987
2435.671544,888.247130,9770.718434,-72779.072310
2435.674130,-3552.988522,-5329.482782,-78294.959896
2435.676717,3404.947333,15988.448347,-73851.606007
2435.679303,-2664.741391,9326.594869,-80746.465489
2435.681889,-740.205942,-1776.494261,-85189.819378
2435.684475,444.123565,5033.400406,-80899.684589
2435.687062,-1628.453072,6661.853478,-77988.521696
2435.689648,1036.288319,5625.565159,-73545.167808
2435.692234,2072.576638,10510.924376,-74617.701505
2435.694821,296.082377,-4293.194464,-80593.246390
2435.697407,1480.411884,0.000000,-83964.066581
2435.699993,592.164754,12435.459826,-80440.027290
2435.702579,740.205942,2960.823768,-79980.369991
2435.705186,-3849.070898,3552.988522,-74004.825107
2435.707793,148.041188,-3108.864956,-75843.454302
2435.710400,4441.235652,2960.823768,-75843.454302
2435.713007,-6365.771101,9178.553681,-81052.903688
2435.715614,2220.617826,4589.276840,-83351.190182
2435.718221,-1924.535449,15840.407159,-79673.931792
2435.720828,740.205942,-2664.741391,-81359.341888
2435.723435,148.041188,6957.935855,-72012.976812
2435.726042,1628.453072,10214.842000,-75690.235202
2435.728649,-3404.947333,5033.400406,-80440.027290
2435.731256,1036.288319,14359.995275,-80899.684589
2435.733863,-1924.535449,-2664.741391,-82431.875585
2435.736470,1776.494261,12879.583391,-77528.864398
2435.739077,-3256.906145,-5477.523971,-79673.931792
2435.741684,2368.659014,-6217.729913,-75996.673402
2435.744291,-888.247130,16432.571912,-74311.263306
2435.746898,-1776.494261,-148.041188,-84117.285680
2435.749505,3404.947333,3108.864956,-79520.712692
2435.752111,3997.112087,1924.535449,-75996.673402
2435.754718,-3701.029710,-6069.688724,-79980.369991
2435.757325,2664.741391,-16876.695478,-77528.864398
2435.759932,1184.329507,17468.860231,-70021.128517
2435.762539,-1332.370696,4293.194464,-83657.628382
2435.765146,-3108.864956,-4441.235652,-84576.942979
2435.767753,1332.370696,-9030.512492,-81359.341888
2435.770360,592.164754,-1332.370696,-77528.864398
2435.772967,-2812.782580,0.000000,-75230.577904
2435.775574,1036.288319,1332.370696,-74311.263306
2435.778181,592.164754,2516.700203,-79061.055394
2435.780788,-2664.741391,-14952.160028,-88254.201370
2435.783395,3997.112087,5625.565159,-78907.836294
2435.786002,-2368.659014,888.247130,-76609.549800
2435.788609,-888.247130,6069.688724,-74311.263306
2435.791216,296.082377,-4885.359217,-77835.302597
2435.793823,1628.453072,-12435.459826,-79827.150892
2435.796430,-444.123565,8290.306550,-81052.903688
2435.799037,-148.041188,5773.606348,-82125.437386
2435.801643,3108.864956,-1776.494261,-78294.959896
2435.804250,-3108.864956,-148.041188,-75230.577904
2435.806857,1332.370696,-5921.647536,-77528.864398
2435.809477,888.247130,-16580.613101,-79980.369991
2435.812094,592.164754,4589.276840,-78294.959896
2435.814711,-2516.700203,2960.823768,-84270.504780
2435.817327,1628.453072,296.082377,-79827.150892
2435.819944,592.164754,-7402.059420,-75690.235202
2435.822561,-1480.411884,-1036.288319,-75537.016103
2435.825178,-5033.400406,-7550.100608,-78601.398095
2435.827795,2812.782580,-888.247130,-77222.426198
2435.830412,0.000000,8586.388927,-81052.903688
2435.833029,-4885.359217,5625.565159,-82585.094684
2435.835646,-1184.329507,-11103.089130,-81818.999186
2435.838262,148.041188,-1776.494261,-72472.634111
2435.840879,1628.453072,0.000000,-75843.454302
2435.843496,-4589.276840,12435.459826,-77682.083497
2435.846113,2664.741391,19097.313304,-79673.931792
2435.848730,-1776.494261,1184.329507,-85496.257577
2435.851347,1184.329507,-13619.789333,-83044.751983
2435.853964,-1036.288319,12879.583391,-72472.634111
2435.856581,-2516.700203,-4145.153275,-77835.302597
2435.859197,1332.370696,9918.759623,-75537.016103
2435.861814,296.082377,9326.594869,-82278.656485
2435.864431,-2220.617826,-2960.823768,-86415.572174
2435.867048,2516.700203,444.123565,-81052.903688
2435.869665,-1480.411884,13323.706956,-74311.263306
2435.872282,-3997.112087,7994.224174,-73851.606007
2435.874899,296.082377,3256.906145,-75537.016103
2435.877515,3108.864956,-5773.606348,-79980.369991
2435.880132,-1184.329507,11251.130318,-82585.094684
2435.882749,-4145.153275,4145.153275,-86109.133975
2435.885366,2220.617826,5329.482782,-76609.549800
2435.887983,3108.864956,2664.741391,-71553.319513
2435.890600,-3404.947333,-5329.482782,-76303.111601
2435.893217,-444.123565,6809.894666,-78601.398095
2435.895834,-148.041188,12435.459826,-82278.656485
2435.898450,1184.329507,1924.535449,-83810.847481
2435.901067,-1036.288319,16136.489536,-77682.083497
2435.903684,-3701.029710,-3997.112087,-78601.398095
2435.906301,740.205942,9326.594869,-72779.072310
2435.908918,148.041188,1480.411884,-77222.426198
2435.911535,-592.164754,13471.748144,-79214.274493
2435.914158,2220.617826,9474.636058,-84576.942979
2435.916781,-740.205942,-3997.112087,-81972.218286
2435.919405,2664.741391,6809.894666,-74464.482406
2435.922028,-2664.741391,6217.729913,-74770.920605
2435.924651,0.000000,-7550.100608,-76762.768900
2435.927275,1036.288319,25463.084405,-75383.797003
2435.929898,-3701.029710,2368.659014,-86109.133975
2435.932521,148.041188,-23242.466579,-82585.094684
2435.935144,3997.112087,6217.729913,-72012.976812
2435.937768,-5329.482782,-2220.617826,-78141.740796
2435.940391,296.082377,5921.647536,-75537.016103
2435.943014,2812.782580,5181.441594,-79673.931792
2435.945638,-592.164754,-14211.954086,-85496.257577
2435.948261,-444.123565,-6069.688724,-80133.589091
2435.950884,-296.082377,4885.359217,-73851.606007
2435.953507,-2516.700203,9030.512492,-73851.606007
2435.956131,148.041188,-11695.253884,-79827.150892
2435.958754,2516.700203,-3552.988522,-80286.808190
2435.961377,-740.205942,-3404.947333,-84730.162079
2435.964001,-2516.700203,-7402.059420,-81052.903688
2435.966624,4737.318029,9770.718434,-70940.443115
2435.969247,-1628.453072,4441.235652,-71859.757712
2435.971870,-888.247130,-12731.542202,-81512.560987
2435.974494,1776.494261,6661.853478,-81206.122788
2435.977117,-740.205942,4293.194464,-82278.656485
2435.979740,0.000000,-888.247130,-81359.341888
2435.982364,0.000000,-6365.771101,-76762.768900
2435.984987,444.123565,-13027.624579,-74311.263306
2435.987610,-740.205942,-2664.741391,-74158.044206
2435.990233,-2220.617826,-3404.947333,-80593.246390
2435.992857,2664.741391,888.247130,-83044.751983
2435.995480,592.164754,3997.112087,-82278.656485
2435.998103,-2664.741391,444.123565,-79520.712692
2436.000727,-296.082377,-12879.583391,-76149.892501
2436.003350,2368.659014,-2516.700203,-72166.195912
2436.005973,-1036.288319,296.082377,-78601.398095
2436.008596,-1184.329507,7402.059420,-81359.341888
2436.011220,2220.617826,-4441.235652,-85189.819378
2436.013843,2368.659014,10658.965565,-79980.369991
2436.016466,-4145.153275,-16580.613101,-80899.684589
2436.019093,1036.288319,8438.347739,-68948.594820
2436.021720,-2516.700203,16136.489536,-74924.139704
2436.024346,-1184.329507,888.247130,-82278.656485
2436.026973,-2664.741391,-1036.288319,-83504.409282
2436.029600,148.041188,6217.729913,-82125.437386
2436.032227,-444.123565,-2368.659014,-77988.521696
2436.034853,1184.329507,17172.777854,-70480.785816
2436.037480,-3552.988522,5477.523971,-77069.207099
2436.040107,2220.617826,-4441.235652,-81206.122788
2436.042734,592.164754,8586.388927,-82125.437386
2436.045360,-444.123565,-2072.576638,-84117.285680
2436.047987,1924.535449,20873.807564,-72472.634111
2436.050614,148.041188,7698.141797,-75230.577904
2436.053241,-2368.659014,-5329.482782,-79673.931792
2436.055867,1184.329507,296.082377,-79520.712692
2436.058494,-1036.288319,6069.688724,-81052.903688
2436.061121,-740.205942,18209.066173,-82738.313784
2436.063747,-1480.411884,-7698.141797,-79827.150892
2436.066374,6365.771101,888.247130,-71093.662214
2436.069001,-7550.100608,10066.800811,-77375.645298
2436.071628,-1184.329507,-7846.182985,-82891.532884
2436.074254,3701.029710,25759.166782,-76456.330700
2436.076881,-2664.741391,5181.441594,-85802.695776
2436.079508,-2960.823768,-6365.771101,-82891.532884
2436.082135,5477.523971,5477.523971,-71859.757712
2436.084761,-3256.906145,9326.594869,-75383.797003
2436.087388,-1924.535449,-3701.029710,-82738.313784
2436.090015,2072.576638,14804.118840,-78448.178995
2436.092641,-740.205942,592.164754,-84576.942979
2436.095268,-888.247130,-2072.576638,-80899.684589
2436.097895,-444.123565,10807.006753,-76149.892501
2436.100522,-1776.494261,3849.070898,-75843.454302
2436.103148,1184.329507,296.082377,-75537.016103
2436.105775,1332.370696,-888.247130,-77375.645298
2436.108402,-1776.494261,-3404.947333,-83810.847481
2436.111029,-148.041188,-19097.313304,-81665.780087
2436.113655,888.247130,22650.301825,-70021.128517
2436.116282,-1924.535449,2812.782580,-79673.931792
2436.118909,-1184.329507,-5033.400406,-79673.931792
2436.121535,1628.453072,-16728.654289,-81512.560987
2436.124161,1332.370696,-6217.729913,-77988.521696
2436.126787,0.000000,5181.441594,-77375.645298
2436.129413,-1628.453072,8734.430116,-77222.426198
2436.132039,592.164754,-8882.471304,-82125.437386
2436.134665,-1184.329507,-10658.965565,-81206.122788
2436.137291,-1628.453072,-4737.318029,-79980.369991
2436.139916,1184.329507,-296.082377,-77835.302597
2436.142542,-740.205942,8142.265362,-76456.330700
2436.145168,888.247130,-1480.411884,-79367.493593
2436.147794,296.082377,-5921.647536,-80133.589091
2436.150420,1924.535449,-444.123565,-82738.313784
2436.153046,592.164754,6069.688724,-80286.808190
2436.155672,-2516.700203,-6217.729913,-80286.808190
2436.158298,888.247130,-10214.842000,-76456.330700
2436.160923,888.247130,1628.453072,-75230.577904
2436.163549,-1332.370696,-7550.100608,-79520.712692
2436.166175,-296.082377,6809.894666,-78448.178995
2436.168801,-888.247130,-6661.853478,-82738.313784
2436.171427,1924.535449,-740.205942,-78294.959896
2436.174053,-5921.647536,-740.205942,-78601.398095
2436.176679,296.082377,-13767.830521,-77375.645298
2436.179304,296.082377,6513.812290,-74311.263306
2436.181930,-3404.947333,8142.265362,-81359.341888
2436.184556,444.123565,-11843.295072,-82738.313784
2436.187182,4293.194464,-2516.700203,-77528.864398
2436.189808,148.041188,-2220.617826,-78448.178995
2436.192434,-3552.988522,18949.272115,-75537.016103
2436.195060,592.164754,12139.377449,-77222.426198
2436.197686,-888.247130,7254.018232,-79520.712692
2436.200311,3256.906145,-13471.748144,-83964.066581
2436.202937,-740.205942,4737.318029,-76915.987999
2436.205563,0.000000,11991.336260,-78601.398095
2436.208189,296.082377,7254.018232,-77835.302597
2436.210815,444.123565,12435.459826,-75996.673402
2436.213441,740.205942,-3701.029710,-80899.684589
2436.216067,-1628.453072,0.000000,-81052.903688
2436.218692,-2960.823768,10658.965565,-77988.521696
2436.221318,148.041188,10066.800811,-74617.701505
2436.223944,2072.576638,11843.295072,-75996.673402
2436.226570,-2812.782580,-6513.812290,-82125.437386
2436.229195,592.164754,-4885.359217,-81972.218286
2436.231819,-296.082377,12731.542202,-79367.493593
2436.234444,-1480.411884,12879.583391,-79520.712692
2436.237068,0.000000,-3849.070898,-76456.330700
2436.239693,4885.359217,1480.411884,-73851.606007
2436.242318,-1628.453072,13027.624579,-77682.083497
2436.244942,-1628.453072,4441.235652,-84117.285680
2436.247567,-296.082377,8142.265362,-80899.684589
2436.250191,1924.535449,13619.789333,-79673.931792
2436.252816,-2072.576638,592.164754,-78601.398095
2436.255440,2368.659014,5921.647536,-73391.948708
2436.258065,-2664.741391,-148.041188,-77222.426198
2436.260690,-592.164754,11399.171507,-79520.712692
2436.263314,-888.247130,740.205942,-83351.190182
2436.265939,2960.823768,-1628.453072,-80746.465489
2436.268563,-1184.329507,-296.082377,-76456.330700
2436.271188,-2960.823768,19541.436869,-75383.797003
2436.273812,-1480.411884,-4737.318029,-80746.465489
2436.276437,5477.523971,-11843.295072,-75383.797003
2436.279062,-1184.329507,1184.329507,-79520.712692
2436.281686,-3108.864956,-14508.036463,-85802.695776
2436.284311,3849.070898,8142.265362,-75843.454302
2436.286935,-592.164754,12435.459826,-78141.740796
2436.289560,-3997.112087,-8734.430116,-81665.780087
2436.292184,1184.329507,-9030.512492,-76762.768900
2436.294809,1184.329507,1184.329507,-76609.549800
2436.297434,-888.247130,-5033.400406,-78294.959896
2436.300058,444.123565,11547.212695,-77222.426198
2436.302683,-148.041188,-9178.553681,-84883.381178
2436.305307,2072.576638,-5181.441594,-82431.875585
2436.307932,1036.288319,-7254.018232,-79520.712692
2436.310556,148.041188,4737.318029,-73545.167808
2436.313181,-444.123565,-740.205942,-75996.673402
2436.315806,-1628.453072,3404.947333,-77069.207099
2436.318430,1480.411884,-3404.947333,-81206.122788
2436.321055,1332.370696,4737.318029,-81512.560987
2436.323679,-2960.823768,0.000000,-81512.560987
2436.326304,-296.082377,-9622.677246,-77682.083497
2436.328928,-1332.370696,-5477.523971,-74464.482406
2436.331553,444.123565,-5773.606348,-76456.330700
2436.334111,-2072.576638,-2072.576638,-79367.493593
2436.336669,-148.041188,-4145.153275,-82738.313784
2436.339227,0.000000,-3404.947333,-81359.341888
2436.341785,-2220.617826,2516.700203,-79827.150892
2436.344343,-1184.329507,-7105.977043,-76915.987999
2436.346901,1924.535449,0.000000,-73698.386908
2436.349459,-2960.823768,6513.812290,-76609.549800
2436.352016,-1480.411884,-9030.512492,-84117.285680
2436.354574,2220.617826,-2220.617826,-80440.027290
2436.357132,1924.535449,10510.924376,-76609.549800
2436.359690,-3404.947333,12731.542202,-77988.521696
2436.362248,592.164754,8438.347739,-77069.207099
2436.364806,-1184.329507,2960.823768,-78754.617194
2436.367364,-1480.411884,-9326.594869,-82431.875585
2436.369922,1776.494261,2960.823768,-77528.864398
2436.372480,-1332.370696,9178.553681,-78141.740796
2436.375038,-1628.453072,18505.148550,-78601.398095
2436.377596,-740.205942,5773.606348,-81818.999186
2436.380154,1628.453072,-7698.141797,-82431.875585
2436.382712,296.082377,1184.329507,-76762.768900
2436.385270,-2516.700203,15840.407159,-74311.263306
2436.387828,-592.164754,9474.636058,-77528.864398
2436.390386,2368.659014,6365.771101,-77682.083497
2436.392944,-1480.411884,-2072.576638,-82738.313784
2436.395501,-1332.370696,2072.576638,-83044.751983
2436.398059,148.041188,5181.441594,-79367.493593
2436.400617,1628.453072,3552.988522,-75996.673402
2436.403175,-1628.453072,3404.947333,-74924.139704
2436.405733,-3701.029710,5477.523971,-77835.302597
2436.408291,296.082377,6957.935855,-81206.122788
2436.410849,148.041188,10066.800811,-81665.780087
2436.413407,-2368.659014,13915.871710,-80899.684589
2436.415965,148.041188,2664.741391,-79673.931792
2436.418523,2960.823768,-296.082377,-75230.577904
2436.421081,-1184.329507,4589.276840,-75077.358804
2436.423639,-1184.329507,7698.141797,-78294.959896
2436.426197,-148.041188,7402.059420,-80746.465489
2436.428755,740.205942,740.205942,-82431.875585
2436.431313,-444.123565,1924.535449,-80899.684589
2436.433871,1184.329507,19985.560434,-72625.853210
2436.436442,-4885.359217,-1036.288319,-79673.931792
2436.439014,3552.988522,-19985.560434,-76609.549800
2436.441585,1480.411884,7550.100608,-75230.577904
2436.444157,-3997.112087,-9474.636058,-85496.257577
2436.446728,1036.288319,6217.729913,-77988.521696
2436.449300,888.247130,8142.265362,-79214.274493
2436.451871,-3256.906145,-9326.594869,-81052.903688
2436.454443,0.000000,-13915.871710,-77682.083497
2436.457015,-740.205942,2960.823768,-74311.263306
2436.459586,592.164754,-1628.453072,-77682.083497
2436.462158,-2368.659014,6069.688724,-78907.836294
2436.464729,-3256.906145,-4737.318029,-84576.942979
2436.467301,1628.453072,-10658.965565,-82891.532884
2436.469872,-740.205942,-3404.947333,-78448.178995
2436.472444,-1924.535449,888.247130,-74004.825107
2436.475015,-148.041188,-1628.453072,-76456.330700
2436.477587,888.247130,1924.535449,-77988.521696
2436.480159,296.082377,296.082377,-83964.066581
2436.482730,1184.329507,3404.947333,-82431.875585
2436.485302,888.247130,-6217.729913,-80440.027290
2436.487873,-1332.370696,-10955.047942,-75843.454302
2436.490445,444.123565,-5921.647536,-74311.263306
2436.493016,0.000000,-2220.617826,-76915.987999
2436.495588,-592.164754,-3997.112087,-81818.999186
2436.498159,-444.123565,0.000000,-81665.780087
2436.500731,-592.164754,2812.782580,-81052.903688
2436.503302,-2960.823768,-10066.800811,-80440.027290
2436.505874,2516.700203,-592.164754,-73391.948708
2436.508446,-2220.617826,4145.153275,-75996.673402
2436.511017,-296.082377,-5329.482782,-81206.122788
2436.513589,-888.247130,-6217.729913,-80899.684589
2436.516160,4145.153275,5033.400406,-80286.808190
2436.518732,-4293.194464,16432.571912,-80440.027290
2436.521303,1332.370696,9622.677246,-77682.083497
2436.523875,-1036.288319,7550.100608,-75996.673402
2436.526446,296.082377,-15248.242405,-80440.027290
2436.529018,-1184.329507,8882.471304,-75537.016103
2436.531590,148.041188,5773.606348,-81818.999186
2436.534161,444.123565,14359.995275,-78907.836294
2436.536733,-296.082377,12583.501014,-79520.712692
2436.539314,1036.288319,-5921.647536,-79980.369991
2436.541895,0.000000,1036.288319,-76762.768900
2436.544476,-444.123565,5033.400406,-76762.768900
2436.547058,1332.370696,11547.212695,-74617.701505
2436.549639,1332.370696,10510.924376,-78601.398095
2436.552220,-1332.370696,-2664.741391,-82891.532884
2436.554801,1184.329507,4441.235652,-82125.437386
2436.557382,-740.205942,6513.812290,-79980.369991
2436.559964,-444.123565,888.247130,-76149.892501
2436.562545,2072.576638,3404.947333,-72472.634111
2436.565126,148.041188,7846.182985,-76609.549800
2436.567707,-1480.411884,6217.729913,-82585.094684
2436.570289,-296.082377,13767.830521,-82891.532884
2436.572870,592.164754,9326.594869,-80746.465489
2436.575451,740.205942,5329.482782,-77682.083497
2436.578032,-1184.329507,296.082377,-75690.235202
2436.580614,2516.700203,6365.771101,-75077.358804
2436.583195,1480.411884,-888.247130,-78754.617194
2436.585776,148.041188,2960.823768,-80286.808190
2436.588357,-1332.370696,17764.942608,-82738.313784
2436.590938,592.164754,10807.006753,-81972.218286
2436.593520,296.082377,-6809.894666,-77682.083497
2436.596101,1776.494261,4737.318029,-70480.785816
2436.598682,-5625.565159,-16876.695478,-80133.589091
2436.601263,888.247130,-11251.130318,-78294.959896
2436.603845,148.041188,17172.777854,-77988.521696
2436.606426,-2664.741391,-296.082377,-87334.886772
2436.609007,1184.329507,1924.535449,-79980.369991
2436.611588,-1036.288319,-13619.789333,-78601.398095
2436.614169,148.041188,-11547.212695,-74158.044206
2436.616751,-1184.329507,3404.947333,-73085.510509
2436.619332,-2516.700203,5181.441594,-78907.836294
2436.621913,1776.494261,-3256.906145,-85036.600278
2436.624494,-1924.535449,-6365.771101,-85649.476676
2436.627076,0.000000,-2516.700203,-79214.274493
2436.629657,-1776.494261,-1628.453072,-75383.797003
2436.632238,1332.370696,4589.276840,-71859.757712
2436.634819,-1036.288319,-5773.606348,-75537.016103
2436.637400,1332.370696,1036.288319,-79061.055394
2436.639982,-2072.576638,5329.482782,-86415.572174
2436.642569,1776.494261,-10362.883188,-85343.038477
2436.645155,1776.494261,-10362.883188,-76456.330700
2436.647742,1184.329507,5181.441594,-70940.443115
2436.650329,-1628.453072,-17024.736666,-77222.426198
2436.652916,2220.617826,3108.864956,-75537.016103
2436.655503,-1480.411884,-2812.782580,-83657.628382
2436.658089,740.205942,-2220.617826,-84883.381178
2436.660676,888.247130,2072.576638,-79214.274493
2436.663263,-1332.370696,-3404.947333,-77069.207099
2436.665850,2368.659014,592.164754,-73698.386908
2436.668437,1332.370696,-3701.029710,-76609.549800
2436.671023,-148.041188,-22058.137072,-84423.723880
2436.673610,1332.370696,17764.942608,-77222.426198
2436.676197,-4885.359217,23834.631332,-83197.971083
2436.678784,740.205942,-3849.070898,-80133.589091
2436.681371,1628.453072,11251.130318,-74464.482406
2436.683958,-4737.318029,-17320.819043,-80286.808190
2436.686544,2664.741391,7550.100608,-72472.634111
2436.689131,-1628.453072,12435.459826,-78754.617194
2436.691718,-296.082377,15544.324782,-81818.999186
2436.694305,-1480.411884,11547.212695,-85343.038477
2436.696892,-592.164754,-8882.471304,-82431.875585
2436.699478,1628.453072,1924.535449,-73851.606007
2436.702065,296.082377,9622.677246,-71246.881314
2436.704652,-1776.494261,9622.677246,-75537.016103
2436.707239,1628.453072,4441.235652,-80593.246390
2436.709826,-3256.906145,2960.823768,-86568.791274
2436.712413,148.041188,296.082377,-84576.942979
2436.714999,1036.288319,3849.070898,-77528.864398
2436.717586,-2368.659014,5477.523971,-73851.606007
2436.720173,592.164754,2812.782580,-72166.195912
2436.722760,1628.453072,7105.977043,-75996.673402
2436.725347,-296.082377,14656.077652,-82278.656485
2436.727933,-740.205942,5477.523971,-86722.010374
2436.730520,-1184.329507,6957.935855,-79061.055394
2436.733107,592.164754,5477.523971,-74464.482406
2436.735694,-1184.329507,5329.482782,-74311.263306
2436.738281,888.247130,592.164754,-76915.987999
2436.740867,296.082377,-7698.141797,-79520.712692
2436.743454,-296.082377,22650.301825,-79980.369991
2436.746045,-3997.112087,4441.235652,-87488.105872
2436.748636,4145.153275,2220.617826,-77069.207099
2436.751226,5033.400406,6217.729913,-68795.375720
2436.753817,-3997.112087,-18505.148550,-79827.150892
2436.756408,-1628.453072,-16728.654289,-76915.987999
2436.758999,1480.411884,24130.713709,-74158.044206
2436.761589,-5773.606348,-296.082377,-88867.077768
2436.764180,1628.453072,2812.782580,-82738.313784
2436.766771,-2368.659014,-15544.324782,-79520.712692
2436.769361,1184.329507,-12139.377449,-73545.167808
2436.771952,-2368.659014,5773.606348,-71859.757712
2436.774543,-1184.329507,-1036.288319,-77375.645298
2436.777134,1332.370696,-6365.771101,-84423.723880
2436.779724,148.041188,-5773.606348,-86109.133975
2436.782315,-1184.329507,-1184.329507,-79980.369991
2436.784906,-888.247130,4441.235652,-72166.195912
2436.787496,-1924.535449,-3404.947333,-72779.072310
2436.790087,2516.700203,-3552.988522,-75843.454302
2436.792678,888.247130,2368.659014,-81512.560987
2436.795269,-2220.617826,-2812.782580,-86568.791274
2436.797859,888.247130,-4441.235652,-83504.409282
2436.800450,-296.082377,-6809.894666,-77375.645298
2436.803041,592.164754,-4441.235652,-72779.072310
2436.805631,296.082377,-1332.370696,-74617.701505
2436.808222,0.000000,-13767.830521,-83657.628382
2436.810813,296.082377,2220.617826,-82125.437386
2436.813404,296.082377,-2220.617826,-83044.751983
2436.815994,-2368.659014,4293.194464,-77988.521696
2436.818585,1332.370696,5181.441594,-74004.825107
2436.821176,740.205942,-7994.224174,-77069.207099
2436.823766,1480.411884,-18357.107362,-78294.959896
2436.826357,1184.329507,14952.160028,-77835.302597
2436.828948,-3552.988522,10362.883188,-85343.038477
2436.831539,2368.659014,20133.601622,-78141.740796
2436.834129,2960.823768,12287.418637,-76915.987999
2436.836720,-3701.029710,-14656.077652,-80746.465489
2436.839311,2516.700203,-740.205942,-72012.976812
2436.841901,-1776.494261,20281.642811,-74924.139704
2436.844492,-592.164754,11547.212695,-83964.066581
2436.847083,-740.205942,9326.594869,-84883.381178
2436.849675,2072.576638,-6513.812290,-82278.656485
2436.852268,1776.494261,1924.535449,-77682.083497
2436.854862,-1776.494261,1776.494261,-73698.386908
2436.857456,1776.494261,17024.736666,-70174.347617
2436.860050,-2368.659014,5773.606348,-80593.246390
2436.862643,-1480.411884,-3108.864956,-88100.982270
2436.865237,2812.782580,-296.082377,-83044.751983
2436.867831,-2368.659014,14211.954086,-76303.111601
2436.870424,-3108.864956,-2220.617826,-77069.207099
2436.873018,4885.359217,-148.041188,-71093.662214
2436.875612,-1480.411884,21910.095883,-73698.386908
2436.878206,-1184.329507,-888.247130,-87334.886772
2436.880799,1184.329507,15988.448347,-81972.218286
2436.883393,-2368.659014,7550.100608,-83657.628382
2436.885987,1184.329507,-148.041188,-76762.768900
2436.888580,-1036.288319,3701.029710,-72472.634111
2436.891174,-1332.370696,-1628.453072,-74464.482406
2436.893768,-148.041188,13027.624579,-81512.560987
2436.896362,-888.247130,-4589.276840,-86722.010374
2436.898955,3108.864956,26647.413912,-76303.111601
2436.901549,-4737.318029,3404.947333,-82278.656485
2436.904143,888.247130,-33309.267390,-77222.426198
2436.906736,4293.194464,5477.523971,-68795.375720
2436.909330,-8734.430116,-16580.613101,-81972.218286
2436.911924,6365.771101,14211.954086,-77988.521696
2436.914518,4885.359217,17024.736666,-80899.684589
2436.917111,-3404.947333,-17320.819043,-85955.914876
2436.919705,1184.329507,-9326.594869,-75537.016103
2436.922299,-1776.494261,-5181.441594,-71246.881314
2436.924893,1924.535449,-4145.153275,-72932.291410
2436.927486,-2664.741391,10510.924376,-78141.740796
2436.930080,-1776.494261,-5477.523971,-91165.364262
2436.932675,148.041188,-7994.224174,-85955.914876
2436.935270,-148.041188,-1776.494261,-79980.369991
2436.937865,-1776.494261,2516.700203,-70787.224015
2436.940460,1184.329507,-2812.782580,-72779.072310
2436.943055,-296.082377,3256.906145,-75996.673402
2436.945650,1628.453072,-2368.659014,-88254.201370
2436.948245,-1480.411884,-5921.647536,-87794.544071
2436.950841,1184.329507,-3256.906145,-80440.027290
2436.953436,-296.082377,-9474.636058,-73238.729609
2436.956031,-296.082377,888.247130,-70327.566716
2436.958626,444.123565,-10955.047942,-76149.892501
2436.961221,3256.906145,-3997.112087,-80440.027290
2436.963816,296.082377,-296.082377,-86722.010374
2436.966411,1628.453072,3552.988522,-83197.971083
2436.969006,1332.370696,296.082377,-76609.549800
2436.971601,-1184.329507,-1036.288319,-72932.291410
2436.974196,-1480.411884,-28868.031738,-77988.521696
2436.976791,3849.070898,11399.171507,-74158.044206
2436.979386,-3849.070898,20577.725188,-84423.723880
2436.981981,2368.659014,13323.706956,-84117.285680
2436.984576,-148.041188,19245.354492,-78601.398095
2436.987172,-592.164754,-24870.919651,-82585.094684
2436.989767,148.041188,888.247130,-68029.280222
2436.992362,-148.041188,7550.100608,-74004.825107
2436.994957,444.123565,14063.912898,-81512.560987
2436.997552,-740.205942,14952.160028,-87334.886772
2437.000147,592.164754,-6513.812290,-86875.229473
2437.002742,-1628.453072,1184.329507,-78294.959896
2437.005337,-2072.576638,2960.823768,-70787.224015
2437.007932,1036.288319,11695.253884,-68948.594820
2437.010527,-1332.370696,4145.153275,-76915.987999
2437.013122,-592.164754,-148.041188,-86109.133975
2437.015717,2516.700203,8586.388927,-86568.791274
2437.018312,-888.247130,5181.441594,-84117.285680
2437.020907,-1036.288319,592.164754,-74770.920605
2437.023503,-296.082377,11399.171507,-68488.937521
2437.026098,0.000000,4145.153275,-75383.797003
2437.028693,-1628.453072,10066.800811,-81359.341888
2437.031288,1628.453072,5773.606348,-87334.886772
2437.033883,148.041188,5477.523971,-82278.656485
2437.036478,1036.288319,16432.571912,-75690.235202
2437.039073,-3997.112087,888.247130,-74617.701505
2437.041669,1036.288319,-11399.171507,-75077.358804
2437.044264,1924.535449,3256.906145,-75537.016103
2437.046859,1332.370696,17468.860231,-84270.504780
2437.049454,-2516.700203,2368.659014,-87028.448573
2437.052050,4293.194464,-6809.894666,-77375.645298
2437.054645,-1480.411884,-10214.842000,-76915.987999
2437.057240,3108.864956,-23390.507767,-76762.768900
2437.059835,1184.329507,17616.901420,-72625.853210
2437.062431,444.123565,-592.164754,-83657.628382
2437.065026,296.082377,11103.089130,-82891.532884
2437.067621,-1480.411884,-14804.118840,-84117.285680
2437.070217,2220.617826,-18949.272115,-74617.701505
2437.072812,592.164754,10807.006753,-69714.690318
2437.075407,-2516.700203,-3552.988522,-77375.645298
2437.078002,1332.370696,-7994.224174,-86722.010374
2437.080598,2516.700203,-4885.359217,-84117.285680
2437.083193,-2516.700203,-3108.864956,-83810.847481
2437.085788,-296.082377,1184.329507,-74158.044206
2437.088383,-3256.906145,-3701.029710,-69714.690318
2437.090979,2368.659014,2220.617826,-74617.701505
2437.093574,-1036.288319,-740.205942,-82278.656485
2437.096169,1036.288319,-3849.070898,-86568.791274
2437.098764,1036.288319,-1332.370696,-84883.381178
2437.101360,-2516.700203,-13027.624579,-79061.055394
2437.103955,-148.041188,-3256.906145,-68795.375720
2437.106550,0.000000,4885.359217,-71553.319513
2437.109146,-1184.329507,-18505.148550,-84270.504780
2437.111741,2664.741391,3552.988522,-82585.094684
2437.114336,-3997.112087,9918.759623,-85343.038477
2437.116931,888.247130,-5181.441594,-80440.027290
2437.119527,1776.494261,10955.047942,-70327.566716
2437.122122,-1036.288319,-34493.596897,-77682.083497
2437.124717,1924.535449,10955.047942,-70480.785816
2437.127312,-4145.153275,18949.272115,-85343.038477
2437.129908,-2664.741391,5773.606348,-88560.639569
2437.132503,6217.729913,9326.594869,-79214.274493
2437.135098,-5181.441594,-4145.153275,-77528.864398
2437.137693,2960.823768,-11399.171507,-71859.757712
2437.140287,1036.288319,15100.201217,-67876.061123
2437.142881,-1924.535449,11103.089130,-82585.094684
2437.145475,444.123565,14508.036463,-88407.420469
2437.148068,444.123565,-1480.411884,-87641.324971
2437.150662,740.205942,3552.988522,-78448.178995
2437.153256,-2516.700203,5477.523971,-70327.566716
2437.155849,740.205942,5033.400406,-71093.662214
2437.158443,3997.112087,3849.070898,-78448.178995
2437.161037,-1480.411884,4441.235652,-87794.544071
2437.163630,-148.041188,3404.947333,-89020.296868
2437.166224,-444.123565,7402.059420,-79520.712692
2437.168818,-1776.494261,9918.759623,-72012.976812
2437.171412,-1628.453072,5921.647536,-68795.375720
2437.174005,-888.247130,6513.812290,-73085.510509
2437.176599,1036.288319,2516.700203,-82891.532884
2437.179193,-2664.741391,3256.906145,-87488.105872
2437.181786,740.205942,17172.777854,-80746.465489
2437.184380,-1036.288319,12287.418637,-76609.549800
2437.186974,148.041188,-11991.336260,-73698.386908
2437.189567,1184.329507,3552.988522,-69561.471218
2437.192161,-2220.617826,11695.253884,-81052.903688
2437.194755,-1036.288319,-4885.359217,-86722.010374
2437.197349,4441.235652,16136.489536,-79061.055394
2437.199942,-148.041188,3849.070898,-76456.330700
2437.202536,-4145.153275,-25463.084405,-78907.836294
2437.205130,2812.782580,9030.512492,-68642.156621
2437.207723,-1480.411884,4145.153275,-79980.369991
2437.210317,-1776.494261,-2664.741391,-87641.324971
2437.212911,1332.370696,-592.164754,-82278.656485
2437.215505,-1036.288319,-13471.748144,-77222.426198
2437.218098,2664.741391,5181.441594,-69714.690318
2437.220692,-2960.823768,1776.494261,-74617.701505
2437.223286,-740.205942,-7698.141797,-80899.684589
2437.225879,740.205942,-740.205942,-84423.723880
2437.228473,-1776.494261,1924.535449,-85343.038477
2437.231067,148.041188,-4145.153275,-77988.521696
2437.233660,-1184.329507,-2220.617826,-70940.443115
2437.236254,-444.123565,-888.247130,-72012.976812
2437.238848,1184.329507,0.000000,-79214.274493
2437.241442,-740.205942,-4145.153275,-87334.886772
2437.244034,888.247130,-14508.036463,-86875.229473
2437.246627,888.247130,148.041188,-76762.768900
2437.249219,-4737.318029,3256.906145,-71553.319513
2437.251812,-148.041188,-12139.377449,-72932.291410
2437.254405,1480.411884,-3404.947333,-76149.892501
2437.256997,148.041188,-3404.947333,-84730.162079
2437.259590,-296.082377,11547.212695,-85955.914876
2437.262182,1776.494261,-4885.359217,-83810.847481
2437.264775,-1628.453072,-25167.002028,-76149.892501
2437.267368,3997.112087,10362.883188,-66037.431928
2437.269960,-6069.688724,3701.029710,-80133.589091
2437.272553,3404.947333,13767.830521,-81206.122788
2437.275146,444.123565,18061.024985,-85189.819378
2437.277738,-2368.659014,-11695.253884,-87334.886772
2437.280331,444.123565,9474.636058,-71093.662214
2437.282923,-2368.659014,2812.782580,-73085.510509
2437.285516,148.041188,2220.617826,-73085.510509
2437.288109,1776.494261,13619.789333,-78907.836294
2437.290701,-1184.329507,6365.771101,-87181.667672
2437.293294,-296.082377,4441.235652,-86568.791274
2437.295887,-1480.411884,5773.606348,-75230.577904
2437.298479,2960.823768,6809.894666,-68488.937521
2437.301072,-1036.288319,1628.453072,-71246.881314
2437.303664,-1036.288319,4885.359217,-79520.712692
2437.306257,2072.576638,5921.647536,-86109.133975
2437.308850,-740.205942,4441.235652,-87334.886772
2437.311442,296.082377,7846.182985,-80440.027290
2437.314035,-1036.288319,5773.606348,-72166.195912
2437.316627,-740.205942,7105.977043,-70174.347617
2437.319220,-296.082377,10955.047942,-76915.987999
2437.321813,2072.576638,-3404.947333,-87334.886772
2437.324405,1628.453072,10362.883188,-84270.504780
2437.326998,-592.164754,11251.130318,-82891.532884
2437.329591,-2072.576638,1628.453072,-77528.864398
2437.332183,296.082377,-2664.741391,-70021.128517
2437.334776,296.082377,13323.706956,-74158.044206
2437.337368,-592.164754,-6217.729913,-84730.162079
2437.339961,4589.276840,-148.041188,-79980.369991
2437.342554,-2960.823768,4145.153275,-83197.971083
2437.345146,-1184.329507,-14063.912898,-81665.780087
2437.347690,2072.576638,740.205942,-73545.167808
2437.350234,-888.247130,148.041188,-75077.358804
2437.352777,0.000000,-5625.565159,-81206.122788
2437.355321,-740.205942,-7105.977043,-82891.532884
2437.357865,1776.494261,-7698.141797,-78294.959896
2437.360408,-296.082377,13175.665768,-74770.920605
2437.362952,-1628.453072,-8586.388927,-79214.274493
2437.365496,1480.411884,-5329.482782,-77835.302597
2437.368040,-148.041188,-6661.853478,-82585.094684
2437.370583,-148.041188,5033.400406,-82278.656485
2437.373127,0.000000,-6957.935855,-79980.369991
2437.375671,1776.494261,444.123565,-73238.729609
2437.378214,-1924.535449,2072.576638,-77069.207099
2437.380758,-296.082377,-7254.018232,-79673.931792
2437.383302,0.000000,-5625.565159,-81052.903688
2437.385845,0.000000,-5921.647536,-85496.257577
2437.388389,-444.123565,-13027.624579,-81052.903688
2437.390933,888.247130,10955.047942,-72625.853210
2437.393476,148.041188,-11695.253884,-77375.645298
2437.396020,888.247130,-1332.370696,-75230.577904
2437.398564,1480.411884,12731.542202,-79367.493593
2437.401108,-1480.411884,-18801.230927,-87181.667672
2437.403651,740.205942,13175.665768,-75996.673402
2437.406195,-888.247130,-15396.283594,-81512.560987
2437.408739,1184.329507,11695.253884,-70634.004916
2437.411282,-1036.288319,22058.137072,-76609.549800
2437.413826,-1628.453072,-5921.647536,-82585.094684
2437.416370,4885.359217,12879.583391,-79214.274493
2437.418913,-4885.359217,-444.123565,-83657.628382
2437.421457,3849.070898,2812.782580,-77222.426198
2437.424001,-444.123565,14952.160028,-71859.757712
2437.426544,-2072.576638,5625.565159,-80133.589091
2437.429088,1184.329507,6069.688724,-81665.780087
2437.431632,148.041188,-444.123565,-82738.313784
2437.434176,-2072.576638,7698.141797,-78448.178995
2437.436719,296.082377,9474.636058,-74464.482406
2437.439263,-1924.535449,1332.370696,-75537.016103
2437.441807,1036.288319,6069.688724,-76609.549800
2437.444350,-2072.576638,3701.029710,-82125.437386
2437.446894,1332.370696,8438.347739,-83351.190182
2437.449447,1628.453072,5033.400406,-79214.274493
2437.452000,0.000000,7550.100608,-75383.797003
2437.454553,-888.247130,7254.018232,-73545.167808
2437.457106,-3552.988522,11991.336260,-74311.263306
2437.459659,3108.864956,6217.729913,-82431.875585
2437.462212,-148.041188,1036.288319,-83657.628382
2437.464765,-296.082377,3552.988522,-81359.341888
2437.467318,-444.123565,9622.677246,-78754.617194
2437.469871,-2072.576638,-2664.741391,-73698.386908
2437.472424,-296.082377,19393.395680,-72932.291410
2437.474977,-2960.823768,-3849.070898,-81818.999186
2437.477530,1184.329507,-24574.837274,-84423.723880
2437.480084,3108.864956,7846.182985,-77835.302597
2437.482637,-2960.823768,-8882.471304,-82431.875585
2437.485190,2960.823768,296.082377,-74924.139704
2437.487743,1924.535449,11695.253884,-74924.139704
2437.490296,-3108.864956,-15692.365970,-83504.409282
2437.492849,1332.370696,-6365.771101,-78601.398095
2437.495402,1776.494261,-6217.729913,-76915.987999
2437.497955,-2368.659014,13027.624579,-75230.577904
2437.500508,-2368.659014,-6217.729913,-81052.903688
2437.503061,1628.453072,-11695.253884,-82585.094684
2437.505614,-740.205942,1628.453072,-79827.150892
2437.508167,-2516.700203,-2072.576638,-80133.589091
2437.510720,1628.453072,-740.205942,-75383.797003
2437.513273,-1776.494261,-1628.453072,-75383.797003
2437.515826,888.247130,-888.247130,-76456.330700
2437.518379,1924.535449,-3256.906145,-79520.712692
2437.520932,444.123565,-6809.894666,-84117.285680
2437.523485,740.205942,-9326.594869,-83964.066581
2437.526038,-740.205942,148.041188,-78754.617194
2437.528591,-296.082377,-3701.029710,-75996.673402
2437.531144,740.205942,-7254.018232,-75690.235202
2437.533697,-1184.329507,2960.823768,-77528.864398
2437.536250,1480.411884,-1332.370696,-82891.532884
2437.538803,-1332.370696,-1332.370696,-84117.285680
2437.541356,-888.247130,-17024.736666,-80746.465489
2437.543910,1924.535449,12583.501014,-74311.263306
2437.546463,-5921.647536,11103.089130,-77528.864398
2437.549016,1924.535449,12731.542202,-75383.797003
2437.551576,-1036.288319,11251.130318,-80746.465489
2437.554137,-592.164754,-16136.489536,-85189.819378
2437.556698,148.041188,8586.388927,-74311.263306
2437.559259,740.205942,14508.036463,-76149.892501
2437.561820,-2220.617826,5477.523971,-79980.369991
2437.564380,1036.288319,6809.894666,-79673.931792
2437.566941,-740.205942,8290.306550,-81206.122788
2437.569502,148.041188,-2960.823768,-82738.313784
2437.572063,2072.576638,7846.182985,-73085.510509
2437.574624,-1332.370696,4441.235652,-73085.510509
2437.577185,444.123565,5477.523971,-76762.768900
2437.579745,444.123565,6661.853478,-82585.094684
2437.582306,740.205942,11695.253884,-84117.285680
2437.584867,-2072.576638,4885.359217,-83197.971083
2437.587428,444.123565,7105.977043,-74311.263306
2437.589989,740.205942,9030.512492,-70021.128517
2437.592549,-4145.153275,5773.606348,-74004.825107
2437.595110,2072.576638,8142.265362,-78907.836294
2437.597671,-1332.370696,3997.112087,-84730.162079
2437.600232,1628.453072,7994.224174,-84423.723880
2437.602793,-1480.411884,3404.947333,-83044.751983
2437.605353,-1036.288319,148.041188,-74158.044206
2437.607914,444.123565,19985.560434,-70021.128517
2437.610475,-1184.329507,-2516.700203,-79367.493593
2437.613036,1480.411884,-14656.077652,-81818.999186
2437.615597,2368.659014,888.247130,-82891.532884
2437.618158,-1924.535449,888.247130,-83504.409282
2437.620718,0.000000,2516.700203,-78294.959896
2437.623279,740.205942,1036.288319,-74770.920605
2437.625840,-1036.288319,-12139.377449,-79061.055394
2437.628401,592.164754,-9770.718434,-77988.521696
2437.630962,1924.535449,-8586.388927,-77528.864398
2437.633522,-148.041188,15544.324782,-76456.330700
2437.636083,-1332.370696,-3997.112087,-83964.066581
2437.638644,1628.453072,-11547.212695,-83504.409282
2437.641205,2664.741391,888.247130,-78141.740796
2437.643766,-2220.617826,0.000000,-78141.740796
2437.646327,592.164754,-7402.059420,-75230.577904
2437.648887,2072.576638,-1628.453072,-73085.510509
2437.651448,-888.247130,-1776.494261,-80593.246390
2437.654014,888.247130,-5477.523971,-83964.066581
2437.656580,444.123565,-4885.359217,-83657.628382
2437.659145,296.082377,-5625.565159,-81206.122788
2437.661711,592.164754,-8438.347739,-78448.178995
2437.664277,-740.205942,4589.276840,-71859.757712
2437.666843,296.082377,0.000000,-76149.892501
2437.669408,-888.247130,-1036.288319,-80899.684589
2437.671974,296.082377,-5921.647536,-82585.094684
2437.674540,-3701.029710,-6069.688724,-81052.903688
2437.677105,1036.288319,2220.617826,-80593.246390
2437.679671,-3849.070898,4145.153275,-77222.426198
2437.682237,2812.782580,28275.866984,-72166.195912
2437.684803,-4737.318029,-2664.741391,-82278.656485
2437.687368,1036.288319,-9622.677246,-79367.493593
2437.689934,-888.247130,16284.530724,-75690.235202
2437.692500,-3997.112087,6365.771101,-81512.560987
2437.695066,2516.700203,10214.842000,-78294.959896
2437.697631,1480.411884,10807.006753,-79367.493593
2437.700197,-444.123565,-888.247130,-82585.094684
2437.702763,0.000000,1924.535449,-79214.274493
2437.705329,-2220.617826,9622.677246,-74770.920605
2437.707894,-888.247130,1036.288319,-75690.235202
2437.710460,1924.535449,1332.370696,-75843.454302
2437.713026,1480.411884,15544.324782,-79520.712692
2437.715591,-1184.329507,2516.700203,-89173.515967
2437.718157,-148.041188,-2220.617826,-84423.723880
2437.720723,1332.370696,14508.036463,-74004.825107
2437.723289,-1924.535449,148.041188,-73391.948708
2437.725854,-1924.535449,6365.771101,-71859.757712
2437.728420,-592.164754,12139.377449,-77222.426198
2437.730986,-1480.411884,-2368.659014,-84883.381178
2437.733552,2220.617826,15396.283594,-83810.847481
2437.736117,-2516.700203,2960.823768,-86415.572174
2437.738683,1480.411884,-1480.411884,-76609.549800
2437.741249,-740.205942,20281.642811,-68795.375720
2437.743815,-2664.741391,-3256.906145,-78754.617194
2437.746380,-888.247130,-20873.807564,-81359.341888
2437.748946,2664.741391,-1924.535449,-80593.246390
2437.751512,296.082377,5921.647536,-83657.628382
2437.754077,888.247130,2812.782580,-82585.094684
2437.756647,740.205942,2220.617826,-76303.111601
2437.759217,1628.453072,-11843.295072,-77069.207099
2437.761787,-3108.864956,-11399.171507,-76456.330700
2437.764356,1628.453072,-10066.800811,-74464.482406
2437.766926,3108.864956,13915.871710,-75383.797003
2437.769496,-4145.153275,3108.864956,-84117.285680
2437.772065,-3849.070898,-13915.871710,-86875.229473
2437.774635,2516.700203,-2072.576638,-78448.178995
2437.777205,-1036.288319,5477.523971,-75537.016103
2437.779775,-2220.617826,-6957.935855,-76303.111601
2437.782344,-1184.329507,-9622.677246,-72319.415011
2437.784914,1332.370696,0.000000,-78294.959896
2437.787484,-888.247130,-6809.894666,-85802.695776
2437.790053,-296.082377,-5773.606348,-84576.942979
2437.792623,-1036.288319,3552.988522,-80899.684589
2437.795193,-2368.659014,-12879.583391,-81359.341888
2437.797763,296.082377,-5033.400406,-73238.729609
2437.800332,-1184.329507,4589.276840,-72472.634111
2437.802902,592.164754,-5625.565159,-79673.931792
2437.805472,1480.411884,6365.771101,-81972.218286
2437.808041,-1776.494261,-20133.601622,-85955.914876
2437.810611,2220.617826,15544.324782,-76915.987999
2437.813181,-5921.647536,8882.471304,-80286.808190
2437.815751,1184.329507,9474.636058,-73698.386908
2437.818320,-888.247130,13471.748144,-76149.892501
2437.820890,-1332.370696,-15692.365970,-82431.875585
2437.823460,2812.782580,11399.171507,-77528.864398
2437.826030,2960.823768,13027.624579,-78141.740796
2437.828599,-592.164754,14211.954086,-81052.903688
2437.831169,-1036.288319,1776.494261,-84270.504780
2437.833739,-296.082377,6957.935855,-79214.274493
2437.836308,592.164754,-2664.741391,-78448.178995
2437.838878,-444.123565,8882.471304,-71246.881314
2437.841448,-592.164754,4293.194464,-74924.139704
2437.844018,-888.247130,1628.453072,-79520.712692
2437.846587,0.000000,4441.235652,-83504.409282
2437.849157,2664.741391,16580.613101,-83504.409282
2437.851727,-296.082377,11399.171507,-81818.999186
2437.854296,-3997.112087,-3108.864956,-77528.864398
2437.856866,888.247130,10510.924376,-68642.156621
2437.859396,-4145.153275,4737.318029,-74924.139704
2437.861926,-2220.617826,4885.359217,-79214.274493
2437.864455,1332.370696,6069.688724,-83810.847481
2437.866985,-2664.741391,10658.965565,-85496.257577
2437.869514,444.123565,-592.164754,-82738.313784
2437.872044,0.000000,17024.736666,-72012.976812
2437.874573,-1332.370696,1036.288319,-76149.892501
2437.877103,296.082377,-18949.272115,-73698.386908
2437.879632,5921.647536,2220.617826,-75230.577904
2437.882162,-3997.112087,1036.288319,-85649.476676
2437.884691,444.123565,6069.688724,-84883.381178
2437.887221,3108.864956,5477.523971,-80593.246390
2437.889750,-1628.453072,-10510.924376,-78754.617194
2437.892280,-1480.411884,-12583.501014,-76456.330700
2437.894809,148.041188,-13471.748144,-72012.976812
2437.897338,1924.535449,10658.965565,-72932.291410
2437.899868,-3108.864956,1480.411884,-83504.409282
2437.902397,296.082377,-2220.617826,-88254.201370
2437.904927,1184.329507,888.247130,-82125.437386
2437.907456,-1184.329507,-3849.070898,-78448.178995
2437.909986,592.164754,-5625.565159,-70174.347617
2437.912515,-3701.029710,444.123565,-73238.729609
2437.915045,-1332.370696,-18949.272115,-81359.341888
2437.917574,4145.153275,444.123565,-77528.864398
2437.920104,-2368.659014,7402.059420,-85189.819378
2437.922633,-148.041188,-10066.800811,-86568.791274
2437.925163,3552.988522,-6513.812290,-77835.302597
2437.927692,888.247130,-4737.318029,-74770.920605
2437.930222,-3552.988522,8734.430116,-73238.729609
2437.932751,-592.164754,-14656.077652,-80133.589091
2437.935281,2960.823768,6957.935855,-77375.645298
2437.937810,0.000000,-8882.471304,-86875.229473
2437.940339,1184.329507,8586.388927,-80899.684589
2437.942869,1776.494261,23242.466579,-76915.987999
2437.945398,-3256.906145,-2368.659014,-78907.836294
2437.947928,3108.864956,4293.194464,-75383.797003
2437.950457,-148.041188,3256.906145,-77988.521696
2437.952987,-1480.411884,-2960.823768,-78141.740796
2437.955516,3108.864956,21910.095883,-74311.263306
2437.958046,888.247130,14359.995275,-82431.875585
2437.960587,-2220.617826,-5181.441594,-85955.914876
2437.963128,2516.700203,8734.430116,-78907.836294
2437.965669,-2516.700203,592.164754,-77835.302597
2437.968210,1184.329507,4885.359217,-72166.195912
2437.970751,-1036.288319,4737.318029,-73698.386908
2437.973292,2812.782580,1184.329507,-79980.369991
2437.975833,1776.494261,13323.706956,-82278.656485
2437.978374,-296.082377,16580.613101,-85036.600278
2437.980915,1924.535449,-1628.453072,-84423.723880
2437.983456,1924.535449,3552.988522,-71706.538613
2437.985997,-2664.741391,12435.459826,-71093.662214
2437.988538,-888.247130,-2368.659014,-76762.768900
2437.991079,3256.906145,13767.830521,-75690.235202
2437.993621,-1480.411884,-296.082377,-87947.763170
2437.996162,1924.535449,6957.935855,-82891.532884
2437.998703,-1036.288319,21021.848753,-81665.780087
2438.001244,148.041188,-14211.954086,-79673.931792
2438.003785,2812.782580,7994.224174,-66956.746525
2438.006326,-6217.729913,-16876.695478,-79061.055394
2438.008867,-3997.112087,-21021.848753,-84730.162079
2438.011408,5773.606348,16876.695478,-78141.740796
2438.013949,-4441.235652,5477.523971,-86875.229473
2438.016490,-444.123565,-3849.070898,-85036.600278
2438.019031,-888.247130,-22354.219448,-77835.302597
2438.021572,3404.947333,-3849.070898,-67876.061123
2438.024113,-5625.565159,1628.453072,-73391.948708
2438.026654,-296.082377,-2516.700203,-79673.931792
2438.029195,3701.029710,5625.565159,-81972.218286
2438.031736,-1480.411884,-10658.965565,-89479.954166
2438.034277,-592.164754,6957.935855,-79980.369991
2438.036818,-2072.576638,1628.453072,-72472.634111
2438.039359,-1628.453072,-14656.077652,-72472.634111
2438.041901,888.247130,-11547.212695,-76609.549800
2438.044442,592.164754,-1776.494261,-82431.875585
2438.046983,-2072.576638,-4145.153275,-86262.353075
2438.049524,-296.082377,1628.453072,-82431.875585
2438.052065,-1184.329507,-2072.576638,-79214.274493
2438.054606,444.123565,-5625.565159,-76915.987999
2438.057147,-296.082377,-1924.535449,-73085.510509
2438.059688,-1184.329507,-11103.089130,-78601.398095
2438.062239,-740.205942,-8734.430116,-81206.122788
2438.064790,1924.535449,12139.377449,-79980.369991
2438.067341,-3108.864956,10362.883188,-83504.409282
2438.069892,2664.741391,16580.613101,-78601.398095
2438.072443,-2368.659014,3404.947333,-79520.712692
2438.074994,2960.823768,-15248.242405,-77069.207099
2438.077544,1776.494261,19393.395680,-69867.909418
2438.080095,-2960.823768,1776.494261,-80746.465489
2438.082646,1924.535449,13767.830521,-77069.207099
2438.085197,2072.576638,11843.295072,-83657.628382
2438.087748,-2072.576638,-3701.029710,-85955.914876
2438.090299,444.123565,6069.688724,-77682.083497
2438.092850,-148.041188,7402.059420,-73391.948708
2438.095401,592.164754,2368.659014,-71553.319513
2438.097952,-888.247130,3108.864956,-77988.521696
2438.100503,2220.617826,-888.247130,-82125.437386
2438.103054,2960.823768,19689.478057,-81665.780087
2438.105605,592.164754,14656.077652,-84117.285680
2438.108156,-2812.782580,3552.988522,-79673.931792
2438.110707,2960.823768,4293.194464,-74311.263306
2438.113258,-3997.112087,-2072.576638,-73391.948708
2438.115809,-1332.370696,15840.407159,-73238.729609
2438.118360,-444.123565,3256.906145,-83351.190182
2438.120911,2812.782580,10807.006753,-83504.409282
2438.123461,1332.370696,13175.665768,-83964.066581
2438.126012,-2812.782580,-6513.812290,-81052.903688
2438.128563,1776.494261,4293.194464,-70174.347617
2438.131114,-3997.112087,-20133.601622,-77528.864398
2438.133665,3404.947333,-9326.594869,-73545.167808
2438.136216,0.000000,18357.107362,-77375.645298
2438.138767,-1776.494261,-5477.523971,-89786.392366
2438.141318,3256.906145,7994.224174,-81972.218286
2438.143869,-296.082377,-9326.594869,-78601.398095
2438.146420,-1776.494261,-13175.665768,-72932.291410
2438.148971,-2072.576638,1776.494261,-68948.594820
2438.151522,-2960.823768,-1628.453072,-77069.207099
2438.154073,1332.370696,1628.453072,-81818.999186
2438.156624,-2220.617826,-148.041188,-88100.982270
2438.159175,-3256.906145,-2812.782580,-83044.751983
2438.161726,2368.659014,6957.935855,-73238.729609
2438.164284,-5033.400406,-4885.359217,-74158.044206
2438.166842,-2812.782580,-19689.478057,-77528.864398
2438.169400,592.164754,-7105.977043,-77682.083497
2438.171958,-148.041188,5773.606348,-83657.628382
2438.174516,-4441.235652,-9326.594869,-88867.077768
2438.177074,1924.535449,1776.494261,-77988.521696
2438.179632,-1480.411884,-2960.823768,-77069.207099
2438.182190,-1480.411884,-3997.112087,-74004.825107
2438.184748,1036.288319,-12139.377449,-75383.797003
2438.187306,-2516.700203,-2072.576638,-77682.083497
2438.189864,1924.535449,2220.617826,-83964.066581
2438.192422,-740.205942,13915.871710,-81972.218286
2438.194980,2812.782580,14656.077652,-79061.055394
2438.197538,-1628.453072,2960.823768,-79367.493593
2438.200096,1924.535449,-18209.066173,-77682.083497
2438.202654,740.205942,20429.683999,-68642.156621
2438.205212,-4441.235652,4589.276840,-81512.560987
2438.207770,1332.370696,14656.077652,-76609.549800
2438.210328,2664.741391,10658.965565,-84883.381178
2438.212886,-592.164754,-2072.576638,-84883.381178
2438.215444,148.041188,5625.565159,-79214.274493
2438.218002,-888.247130,6365.771101,-73851.606007
2438.220560,1480.411884,7846.182985,-73238.729609
2438.223118,-1184.329507,-3997.112087,-79061.055394
2438.225676,1036.288319,9326.594869,-81359.341888
2438.228234,592.164754,15100.201217,-84883.381178
2438.230792,-148.041188,9474.636058,-82278.656485
2438.233350,148.041188,11399.171507,-76609.549800
2438.235908,-3701.029710,2812.782580,-74617.701505
2438.238466,-888.247130,-2664.741391,-74311.263306
2438.241025,1628.453072,12731.542202,-72932.291410
2438.243583,-3997.112087,1628.453072,-82738.313784
2438.246141,2220.617826,3108.864956,-85036.600278
2438.248699,592.164754,21021.848753,-79673.931792
2438.251257,-3997.112087,-5921.647536,-83197.971083
2438.253815,3256.906145,-20577.725188,-72166.195912
2438.256373,-1924.535449,4441.235652,-70327.566716
2438.258931,-2072.576638,-16432.571912,-80286.808190
2438.261489,5477.523971,12879.583391,-76609.549800
2438.264047,-2516.700203,8882.471304,-86262.353075
2438.266570,296.082377,-10510.924376,-88254.201370
2438.269093,1480.411884,-16728.654289,-77988.521696
2438.271617,592.164754,888.247130,-69101.813920
2438.274140,444.123565,2072.576638,-72012.976812
2438.276663,-2516.700203,-3997.112087,-80593.246390
2438.279186,2220.617826,-3108.864956,-84730.162079
2438.281710,148.041188,444.123565,-86722.010374
2438.284233,-2220.617826,3108.864956,-81052.903688
2438.286756,0.000000,1184.329507,-73238.729609
2438.289280,-3108.864956,-11103.089130,-71859.757712
2438.291803,-2220.617826,-12139.377449,-74464.482406
2438.294326,1924.535449,-5181.441594,-78907.836294
2438.296849,-2664.741391,-7994.224174,-86875.229473
2438.299373,1184.329507,3552.988522,-83964.066581
2438.301896,296.082377,-148.041188,-77375.645298
2438.304419,-2368.659014,4737.318029,-73085.510509
2438.306943,-444.123565,-22946.384202,-76762.768900
2438.309466,0.000000,2960.823768,-73238.729609
2438.311989,-592.164754,-12435.459826,-84270.504780
2438.314512,1184.329507,14656.077652,-80899.684589
2438.317036,-888.247130,26943.496289,-82891.532884
2438.319559,-2072.576638,-3997.112087,-82125.437386
2438.322082,2072.576638,4293.194464,-75383.797003
2438.324606,-148.041188,-2664.741391,-75537.016103
2438.327129,-1924.535449,-2220.617826,-78294.959896
2438.329652,2664.741391,20133.601622,-74770.920605
2438.332175,-1924.535449,10510.924376,-86262.353075
2438.334699,-1184.329507,-2516.700203,-88407.420469
2438.337222,2812.782580,3701.029710,-79214.274493
2438.339745,-1184.329507,7254.018232,-73851.606007
2438.342269,-148.041188,13471.748144,-69561.471218
2438.344792,-1924.535449,-1480.411884,-76915.987999
2438.347315,4589.276840,-3997.112087,-79980.369991
2438.349838,296.082377,18209.066173,-82585.094684
2438.352362,-1924.535449,28127.825796,-81972.218286
2438.354885,-1628.453072,-4293.194464,-82891.532884
2438.357408,2072.576638,13767.830521,-70480.785816
2438.359932,-3849.070898,-3108.864956,-75690.235202
2438.362455,1332.370696,2960.823768,-74004.825107
2438.364978,-592.164754,17172.777854,-79520.712692
2438.367515,-740.205942,-148.041188,-85955.914876
2438.370051,1480.411884,27535.661042,-79520.712692
2438.372587,-3997.112087,-10658.965565,-84883.381178
2438.375124,5773.606348,-14211.954086,-73238.729609
2438.377660,-1924.535449,10955.047942,-67569.622924
2438.380197,-6513.812290,-11695.253884,-81359.341888
2438.382733,3552.988522,10510.924376,-77222.426198
2438.385269,1184.329507,2368.659014,-86262.353075
2438.387806,-740.205942,-11399.171507,-86875.229473
2438.390342,1036.288319,-9918.759623,-78141.740796
2438.392878,0.000000,-8290.306550,-71093.662214
2438.395415,-148.041188,3997.112087,-71093.662214
2438.397951,-2072.576638,-4145.153275,-78448.178995
2438.400488,1480.411884,-2664.741391,-83657.628382
2438.403024,-740.205942,-2220.617826,-86109.133975
2438.405560,-2516.700203,4145.153275,-79061.055394
2438.408097,-592.164754,-4737.318029,-75690.235202
2438.410633,1184.329507,-13027.624579,-72012.976812
2438.413170,-2072.576638,-9622.677246,-76762.768900
2438.415706,2220.617826,-6069.688724,-81665.780087
2438.418242,-2368.659014,-2072.576638,-85343.038477
2438.420779,1776.494261,-296.082377,-82431.875585
2438.423315,-1332.370696,4737.318029,-76303.111601
2438.425852,-1628.453072,-2220.617826,-76609.549800
2438.428388,2812.782580,-18801.230927,-75690.235202
2438.430924,2812.782580,-13471.748144,-78754.617194
2438.433461,1332.370696,10658.965565,-79980.369991
2438.435997,-4441.235652,17616.901420,-84117.285680
2438.438534,2072.576638,16136.489536,-81665.780087
2438.441070,-740.205942,5033.400406,-79520.712692
2438.443606,-1628.453072,-18949.272115,-77682.083497
2438.446143,888.247130,16432.571912,-68335.718422
2438.448679,-3108.864956,20725.766376,-76303.111601
2438.451215,-2516.700203,6365.771101,-84883.381178
2438.453752,3404.947333,11103.089130,-83044.751983
2438.456288,-592.164754,2368.659014,-83044.751983
2438.458825,-1332.370696,2072.576638,-78754.617194
2438.461361,-2072.576638,10066.800811,-71400.100414
2438.463897,1332.370696,592.164754,-75077.358804
2438.466434,1776.494261,1332.370696,-78601.398095
2438.468981,-1036.288319,10214.842000,-85343.038477
2438.471529,740.205942,17468.860231,-83351.190182
2438.474076,-1628.453072,9178.553681,-80593.246390
2438.476623,-1924.535449,9326.594869,-74311.263306
2438.479171,740.205942,-2368.659014,-74004.825107
2438.481718,444.123565,1480.411884,-75230.577904
2438.484266,-1480.411884,4885.359217,-80899.684589
2438.486813,1628.453072,3849.070898,-85189.819378
2438.489360,0.000000,25167.002028,-78754.617194
2438.491908,-2812.782580,-8142.265362,-83197.971083
2438.494455,2516.700203,-15988.448347,-73085.510509
2438.497003,-1628.453072,-4589.276840,-73391.948708
2438.499550,-2664.741391,-14211.954086,-77528.864398
2438.502097,6661.853478,18209.066173,-75537.016103
2438.504645,-5329.482782,5773.606348,-89020.296868
2438.507192,3552.988522,-12879.583391,-86722.010374
2438.509740,1776.494261,-11547.212695,-76303.111601
2438.512287,1036.288319,-1480.411884,-68948.594820
2438.514834,-592.164754,-2960.823768,-74770.920605
2438.517382,1628.453072,-1628.453072,-78754.617194
2438.519929,888.247130,-7105.977043,-86415.572174
2438.522476,-740.205942,3552.988522,-86109.133975
2438.525024,-1036.288319,1776.494261,-80286.808190
2438.527571,1332.370696,-3404.947333,-72472.634111
2438.530119,-4145.153275,-7402.059420,-71400.100414
2438.532666,148.041188,-17468.860231,-77528.864398
2438.535213,0.000000,-2368.659014,-79827.150892
2438.537761,-3552.988522,-4885.359217,-88560.639569
2438.540308,-1036.288319,-592.164754,-84576.942979
2438.542856,296.082377,8438.347739,-75077.358804
2438.545403,592.164754,-17320.819043,-74617.701505
2438.547950,3256.906145,-1036.288319,-71859.757712
2438.550505,-1776.494261,-26499.372724,-81665.780087
2438.553060,2664.741391,28275.866984,-77988.521696
2438.555615,-2960.823768,11251.130318,-91012.145162
2438.558171,5033.400406,13175.665768,-79827.150892
2438.560726,-2960.823768,11991.336260,-78294.959896
2438.563281,-444.123565,-28275.866984,-78294.959896
2438.565836,5181.441594,3849.070898,-69867.909418
2438.568391,1184.329507,28127.825796,-74004.825107
2438.570946,-2812.782580,4737.318029,-89479.954166
2438.573501,4589.276840,10362.883188,-85649.476676
2438.576056,-1628.453072,2664.741391,-81665.780087
2438.578611,-1036.288319,3849.070898,-75996.673402
2438.581166,-1036.288319,9178.553681,-68642.156621
2438.583721,888.247130,-740.205942,-72319.415011
2438.586276,1332.370696,7254.018232,-78907.836294
2438.588831,-2368.659014,3108.864956,-89786.392366
2438.591386,2072.576638,18061.024985,-85036.600278
2438.593941,2664.741391,9030.512492,-78754.617194
2438.596496,-1184.329507,6661.853478,-71400.100414
2438.599051,1776.494261,296.082377,-71246.881314
2438.601606,-3108.864956,-10362.883188,-76609.549800
2438.604161,-296.082377,25907.207970,-78907.836294
2438.606716,-1036.288319,3256.906145,-89939.611465
2438.609271,-888.247130,17764.942608,-80746.465489
2438.611826,-888.247130,2960.823768,-79827.150892
2438.614381,-1628.453072,-35529.885216,-75230.577904
2438.616936,3404.947333,3849.070898,-66037.431928
2438.619491,-2368.659014,13915.871710,-76456.330700
2438.622046,296.082377,-2960.823768,-88407.420469
2438.624601,4589.276840,12287.418637,-81818.999186
2438.627156,-2664.741391,-10955.047942,-86415.572174
2438.629711,444.123565,-18357.107362,-76609.549800
2438.632266,-888.247130,-1480.411884,-67109.965625
2438.634821,740.205942,-1332.370696,-72779.072310
2438.637376,1036.288319,-1184.329507,-81052.903688
2438.639931,-740.205942,-5329.482782,-89786.392366
2438.642486,888.247130,1924.535449,-86262.353075
2438.645041,-2812.782580,-592.164754,-76149.892501
2438.647597,-3256.906145,-9030.512492,-70787.224015
2438.650152,296.082377,-14656.077652,-70940.443115
2438.652713,1332.370696,-3997.112087,-77528.864398
2438.655275,-592.164754,-11695.253884,-87947.763170
2438.657836,592.164754,5921.647536,-85955.914876
2438.660397,-2516.700203,11103.089130,-83197.971083
2438.662959,-740.205942,-5625.565159,-75383.797003
2438.665520,888.247130,-8882.471304,-68795.375720
2438.668082,-1924.535449,-16876.695478,-74158.044206
2438.670643,3552.988522,-2516.700203,-78754.617194
2438.673205,-1036.288319,17320.819043,-87334.886772
2438.675766,3404.947333,23834.631332,-83810.847481
2438.678328,-2220.617826,10955.047942,-83504.409282
2438.680889,-296.082377,-24574.837274,-77222.426198
2438.683451,296.082377,11547.212695,-61747.297139
2438.686012,-1628.453072,2812.782580,-74924.139704
2438.688574,-1776.494261,20429.683999,-79673.931792
2438.691135,2664.741391,4441.235652,-90552.487864
2438.693697,296.082377,6661.853478,-86722.010374
2438.696258,-1628.453072,3997.112087,-81512.560987
2438.698820,-5625.565159,1332.370696,-69408.252119
2438.701381,1776.494261,-1480.411884,-67109.965625
2438.703943,444.123565,16728.654289,-73085.510509
2438.706504,-1036.288319,2664.741391,-90552.487864
2438.709066,3404.947333,12731.542202,-87181.667672
2438.711627,740.205942,22354.219448,-82891.532884
2438.714189,-3701.029710,1628.453072,-79214.274493
2438.716750,3552.988522,3404.947333,-66343.870127
2438.719312,-3997.112087,-3108.864956,-70787.224015
2438.721873,0.000000,10510.924376,-78754.617194
2438.724435,0.000000,19245.354492,-87947.763170
2438.726996,1184.329507,3108.864956,-86415.572174
2438.729558,444.123565,11251.130318,-77682.083497
2438.732119,-4145.153275,-28571.949361,-78907.836294
2438.734681,3997.112087,-12879.583391,-66497.089226
2438.737242,-2960.823768,9474.636058,-72012.976812
2438.739804,-592.164754,3701.029710,-84270.504780
2438.742365,3108.864956,3997.112087,-85496.257577
2438.744927,-2072.576638,-7254.018232,-85955.914876
2438.747488,-1036.288319,-12287.418637,-79520.712692
2438.750050,-592.164754,-5625.565159,-70021.128517
2438.752611,-1036.288319,444.123565,-70787.224015
2438.755178,1480.411884,-444.123565,-80286.808190
2438.757744,-888.247130,-2220.617826,-89020.296868
2438.760311,-592.164754,-4737.318029,-86568.791274
2438.762878,1184.329507,-4441.235652,-78448.178995
2438.765444,-3256.906145,-3404.947333,-73545.167808
2438.768011,888.247130,-11991.336260,-71706.538613
2438.770578,-2072.576638,-7698.141797,-74311.263306
2438.773145,296.082377,-1924.535449,-85955.914876
2438.775711,444.123565,-11399.171507,-90092.830565
2438.778278,-148.041188,10214.842000,-78907.836294
2438.780845,0.000000,-5181.441594,-74311.263306
2438.783411,-1480.411884,-7550.100608,-70787.224015
2438.785978,592.164754,-18801.230927,-76303.111601
2438.788545,888.247130,10510.924376,-78754.617194
2438.791111,-3404.947333,24722.878463,-86722.010374
2438.793678,-444.123565,11103.089130,-86262.353075
2438.796245,-1184.329507,11991.336260,-79214.274493
2438.798811,-1924.535449,-16580.613101,-77988.521696
2438.801378,3256.906145,1480.411884,-66497.089226
2438.803945,-1332.370696,23094.425390,-70480.785816
2438.806511,-444.123565,5625.565159,-87488.105872
2438.809078,1776.494261,15840.407159,-88407.420469
2438.811645,1036.288319,-888.247130,-85955.914876
2438.814211,888.247130,8734.430116,-74158.044206
2438.816778,-1776.494261,1036.288319,-68182.499322
2438.819345,148.041188,-1036.288319,-70021.128517
2438.821911,-1332.370696,13027.624579,-77222.426198
2438.824478,-888.247130,10658.965565,-87641.324971
2438.827045,-2368.659014,10955.047942,-88100.982270
2438.829612,2664.741391,17616.901420,-83657.628382
2438.832178,-1628.453072,5773.606348,-73698.386908
2438.834745,-592.164754,-10510.924376,-69867.909418
2438.837312,3108.864956,17764.942608,-68642.156621
2438.839878,-1184.329507,-1332.370696,-86568.791274
2438.842445,444.123565,18801.230927,-86262.353075
2438.845012,-592.164754,12731.542202,-87334.886772
2438.847578,-740.205942,-32569.061448,-81052.903688
2438.850145,1924.535449,8882.471304,-63432.707234
2438.852712,-4737.318029,-18061.024985,-75537.016103
2438.855278,5921.647536,4885.359217,-73698.386908
2438.857844,4145.153275,8438.347739,-84730.162079
2438.860415,-2812.782580,-2220.617826,-89479.954166
2438.862986,296.082377,-12879.583391,-82125.437386
2438.865556,1332.370696,-9030.512492,-69714.690318
2438.868127,-296.082377,-592.164754,-69255.033019
2438.870698,1184.329507,-1480.411884,-79827.150892
2438.873269,148.041188,-1036.288319,-87488.105872
2438.875839,1924.535449,-592.164754,-86875.229473
2438.878410,-2812.782580,-11399.171507,-84117.285680
2438.880981,-2072.576638,-4293.194464,-70634.004916
2438.883552,2960.823768,-5181.441594,-69867.909418
2438.886123,-148.041188,-12879.583391,-77835.302597
2438.888693,148.041188,-8734.430116,-87028.448573
2438.891264,3997.112087,-296.082377,-87794.544071
2438.893835,-2960.823768,11399.171507,-81665.780087
2438.896406,-148.041188,-11103.089130,-76456.330700
2438.898976,1036.288319,-1628.453072,-67109.965625
2438.901547,2072.576638,-18357.107362,-76456.330700
2438.904118,888.247130,11991.336260,-78141.740796
2438.906689,296.082377,26351.331535,-86568.791274
2438.909260,-1036.288319,5625.565159,-86722.010374
2438.911830,740.205942,10955.047942,-80133.589091
2438.914401,592.164754,7254.018232,-69714.690318
2438.916972,-3256.906145,-7402.059420,-72779.072310
2438.919543,5773.606348,18505.148550,-71706.538613
2438.922113,888.247130,8586.388927,-86109.133975
2438.924684,444.123565,11843.295072,-89786.392366
2438.927255,-2220.617826,888.247130,-86722.010374
2438.929826,-296.082377,5329.482782,-75690.235202
2438.932396,-1184.329507,740.205942,-68029.280222
2438.934967,1776.494261,-5181.441594,-70174.347617
2438.937538,888.247130,23834.631332,-74464.482406
2438.940109,-740.205942,17024.736666,-90092.830565
2438.942680,-2368.659014,6661.853478,-90092.830565
2438.945250,3701.029710,13471.748144,-77069.207099
2438.947821,-2072.576638,1332.370696,-71706.538613
2438.950392,444.123565,-3256.906145,-69867.909418
2438.952963,3404.947333,12139.377449,-71093.662214
2438.955533,-1036.288319,14952.160028,-85036.600278
2438.958104,1036.288319,2960.823768,-89326.735067
2438.960678,1036.288319,9030.512492,-82585.094684
2438.963251,-3256.906145,-23390.507767,-81512.560987
2438.965825,-2664.741391,-22650.301825,-71859.757712
2438.968398,6217.729913,15544.324782,-66650.308326
2438.970972,-2220.617826,-888.247130,-84576.942979
2438.973545,740.205942,-5329.482782,-89479.954166
2438.976119,2368.659014,148.041188,-83657.628382
2438.978692,-592.164754,-11399.171507,-79214.274493
2438.981266,888.247130,-3849.070898,-69867.909418
2438.983839,888.247130,-296.082377,-70634.004916
2438.986413,-2072.576638,-3256.906145,-80286.808190
2438.988986,1628.453072,-2960.823768,-87334.886772
2438.991560,-148.041188,-4145.153275,-84730.162079
2438.994133,-1480.411884,0.000000,-77222.426198
2438.996707,-2812.782580,-7698.141797,-74158.044206
2438.999280,444.123565,-14359.995275,-70174.347617
2439.001854,2368.659014,1628.453072,-75843.454302
2439.004427,-3997.112087,-12879.583391,-91471.802461
2439.007001,296.082377,888.247130,-86722.010374
2439.009574,2516.700203,4737.318029,-79061.055394
2439.012148,-4441.235652,-3256.906145,-74770.920605
2439.014721,-1924.535449,-19689.478057,-72012.976812
2439.017295,3108.864956,592.164754,-71706.538613
2439.019868,-1776.494261,20429.683999,-83810.847481
2439.022442,296.082377,9622.677246,-89326.735067
2439.025015,-1332.370696,19985.560434,-83504.409282
2439.027589,-2516.700203,-10807.006753,-80133.589091
2439.030162,3997.112087,-7254.018232,-66190.651027
2439.032736,2220.617826,16432.571912,-66956.746525
2439.035309,-4737.318029,7994.224174,-82585.094684
2439.037883,444.123565,13619.789333,-87947.763170
2439.040456,2220.617826,10807.006753,-87488.105872
2439.043030,-2516.700203,7550.100608,-81972.218286
2439.045603,-3849.070898,-3552.988522,-69867.909418
2439.048177,-1184.329507,0.000000,-67109.965625
2439.050750,3552.988522,13915.871710,-74311.263306
2439.053324,2812.782580,12287.418637,-86415.572174
2439.055897,-3256.906145,21465.972318,-90246.049664
2439.058471,1924.535449,3404.947333,-86722.010374
2439.061044,-1480.411884,8142.265362,-70940.443115
2439.063620,-888.247130,444.123565,-67876.061123
2439.066196,-2220.617826,3256.906145,-70327.566716
2439.068772,3552.988522,11695.253884,-79520.712692
2439.071348,-1036.288319,7105.977043,-88100.982270
2439.073924,740.205942,11251.130318,-83964.066581
2439.076500,-3997.112087,-18357.107362,-81359.341888
2439.079076,2072.576638,-14359.995275,-67416.403824
2439.081652,2368.659014,10066.800811,-65424.555529
2439.084228,-5033.400406,-7698.141797,-82125.437386
2439.086804,3404.947333,2368.659014,-85189.819378
2439.089380,-1924.535449,-888.247130,-88407.420469
2439.091956,-1184.329507,-7254.018232,-82125.437386
2439.094532,-1480.411884,0.000000,-69714.690318
2439.097108,-1480.411884,-3849.070898,-69408.252119
2439.099684,1184.329507,-4737.318029,-78907.836294
2439.102260,740.205942,592.164754,-87794.544071
2439.104836,-888.247130,-10807.006753,-87488.105872
2439.107412,-1184.329507,3404.947333,-79827.150892
2439.109988,-3108.864956,-8438.347739,-75383.797003
2439.112564,-1628.453072,-9474.636058,-67722.842023
2439.115140,1776.494261,-2960.823768,-72472.634111
2439.117716,-1480.411884,-13767.830521,-88254.201370
2439.120292,-1184.329507,2516.700203,-88407.420469
2439.122868,888.247130,-1480.411884,-84730.162079
2439.125444,1776.494261,1332.370696,-71246.881314
2439.128021,-148.041188,-18505.148550,-70787.224015
2439.130597,0.000000,2812.782580,-70327.566716
2439.133173,-2072.576638,21762.054695,-83044.751983
2439.135749,-1332.370696,740.205942,-90858.926063
2439.138325,2220.617826,21910.095883,-84423.723880
2439.140901,-3108.864956,-7994.224174,-82585.094684
2439.143477,2812.782580,1628.453072,-66650.308326
2439.146053,1332.370696,10214.842000,-66190.651027
2439.148629,-2812.782580,740.205942,-79061.055394
2439.151205,592.164754,15544.324782,-87334.886772
2439.153781,-444.123565,3108.864956,-89939.611465
2439.156357,-740.205942,11991.336260,-80286.808190
2439.158933,-1480.411884,2368.659014,-71400.100414
2439.161509,-148.041188,-8734.430116,-66803.527426
2439.164085,3997.112087,21169.889941,-68182.499322
2439.166661,-7698.141797,8142.265362,-88560.639569
2439.169238,2220.617826,16136.489536,-89939.611465
2439.171815,-592.164754,11399.171507,-86415.572174
2439.174392,-1036.288319,6069.688724,-75843.454302
2439.176968,-1184.329507,2220.617826,-68488.937521
2439.179545,888.247130,-2516.700203,-72472.634111
2439.182122,2812.782580,25759.166782,-76303.111601
2439.184699,-3404.947333,1776.494261,-93923.308055
2439.187275,2664.741391,-16580.613101,-88254.201370
2439.189852,296.082377,12879.583391,-74924.139704
2439.192429,-6661.853478,-24426.796086,-75690.235202
2439.195006,8586.388927,11399.171507,-62206.954438
2439.197582,-3849.070898,-888.247130,-79367.493593
2439.200159,-888.247130,-10658.965565,-89786.392366
2439.202736,2812.782580,0.000000,-86415.572174
2439.205313,-592.164754,-2220.617826,-81818.999186
2439.207889,-1776.494261,-3404.947333,-71706.538613
2439.210466,-1036.288319,-5181.441594,-70480.785816
2439.213043,-296.082377,-7550.100608,-76762.768900
2439.215620,-2516.700203,7402.059420,-85189.819378
2439.218196,-888.247130,-14359.995275,-91318.583362
2439.220773,6661.853478,-11991.336260,-78601.398095
2439.223350,-592.164754,5329.482782,-70480.785816
2439.225927,-5033.400406,-9178.553681,-74770.920605
2439.228504,3701.029710,-12879.583391,-76149.892501
2439.231080,-1776.494261,-5773.606348,-83197.971083
2439.233657,1628.453072,-592.164754,-86722.010374
2439.236234,-1776.494261,3108.864956,-82125.437386
2439.238811,-2368.659014,-18209.066173,-74311.263306
2439.241387,2664.741391,14211.954086,-67416.403824
2439.243964,-2368.659014,-4589.276840,-80593.246390
2439.246541,3849.070898,15396.283594,-79061.055394
2439.249118,-2072.576638,20133.601622,-89633.173266
2439.251694,-2812.782580,-13471.748144,-89786.392366
2439.254271,4293.194464,22206.178260,-67722.842023
2439.256848,-7846.182985,-8882.471304,-75537.016103
2439.259425,3701.029710,4737.318029,-76762.768900
2439.262001,6069.688724,14804.118840,-80593.246390
2439.264578,-592.164754,4589.276840,-89326.735067
2439.267155,2072.576638,14804.118840,-86568.791274
2439.269732,-4145.153275,-592.164754,-78294.959896
2439.272310,296.082377,-3997.112087,-68029.280222
2439.274887,-3404.947333,15100.201217,-67263.184724
2439.277465,-2220.617826,592.164754,-80746.465489
2439.280042,1184.329507,20725.766376,-82738.313784
2439.282619,-2812.782580,12139.377449,-89939.611465
2439.285197,-3108.864956,-2516.700203,-80440.027290
2439.287774,2368.659014,13471.748144,-68488.937521
2439.290352,2516.700203,5033.400406,-69867.909418
2439.292929,296.082377,6069.688724,-76609.549800
2439.295507,-592.164754,13175.665768,-86415.572174
2439.298084,-3701.029710,-25315.043216,-91625.021561
2439.300662,3701.029710,14063.912898,-75843.454302
2439.303239,-4737.318029,-9326.594869,-77528.864398
2439.305816,1184.329507,-296.082377,-68029.280222
2439.308394,2516.700203,-3108.864956,-74464.482406
2439.310971,-3701.029710,-7254.018232,-85496.257577
2439.313549,3256.906145,-7698.141797,-87181.667672
2439.316126,-1184.329507,3997.112087,-78294.959896
2439.318704,148.041188,2368.659014,-73851.606007
2439.321281,-444.123565,-1776.494261,-71859.757712
2439.323859,-740.205942,-10214.842000,-79367.493593
2439.326436,888.247130,-5477.523971,-79827.150892
2439.329013,740.205942,444.123565,-86262.353075
2439.331591,-444.123565,-15840.407159,-83504.409282
2439.334168,2516.700203,1628.453072,-72012.976812
2439.336746,-2812.782580,-5625.565159,-74924.139704
2439.339323,-1184.329507,-12287.418637,-78601.398095
2439.341901,-1776.494261,444.123565,-82278.656485
2439.344478,148.041188,-12435.459826,-84576.942979
2439.347056,148.041188,6217.729913,-77988.521696
2439.349633,-296.082377,-12583.501014,-77069.207099
2439.352210,888.247130,10510.924376,-71706.538613
2439.354788,-1036.288319,17172.777854,-77988.521696
2439.357365,-2812.782580,-8438.347739,-84270.504780
2439.359943,2220.617826,17468.860231,-80899.684589
2439.362520,-3108.864956,-444.123565,-85955.914876
2439.365098,2516.700203,0.000000,-74004.825107
2439.367675,3701.029710,22058.137072,-67569.622924
2439.370253,-3108.864956,-3997.112087,-81206.122788
2439.372831,2220.617826,6217.729913,-82585.094684
2439.375409,-296.082377,6661.853478,-84270.504780
2439.377987,-1628.453072,5033.400406,-80899.684589
2439.380565,2368.659014,9770.718434,-74464.482406
2439.383144,-2664.741391,592.164754,-74770.920605
2439.385722,1036.288319,4737.318029,-72932.291410
2439.388300,5477.523971,20873.807564,-78141.740796
2439.390878,-444.123565,2960.823768,-87794.544071
2439.393456,1184.329507,15840.407159,-81665.780087
2439.396035,740.205942,13767.830521,-75690.235202
2439.398613,-1036.288319,-888.247130,-74311.263306
2439.401191,-1036.288319,21021.848753,-69714.690318
2439.403769,-1480.411884,-3108.864956,-81512.560987
2439.406347,1924.535449,2516.700203,-83964.066581
2439.408926,-2368.659014,-17912.983796,-87028.448573
2439.411504,2664.741391,-444.123565,-74311.263306
2439.414082,-444.123565,18653.189738,-72779.072310
2439.416660,-4145.153275,-13619.789333,-77069.207099
2439.419238,5921.647536,1332.370696,-72625.853210
2439.421817,-3701.029710,5329.482782,-80440.027290
2439.424395,-1480.411884,-17320.819043,-86875.229473
2439.426973,2368.659014,10658.965565,-73085.510509
2439.429551,-1924.535449,2812.782580,-75230.577904
2439.432129,-444.123565,-6809.894666,-77069.207099
2439.434708,740.205942,1776.494261,-78601.398095
2439.437286,-1184.329507,-15988.448347,-85496.257577
2439.439864,3108.864956,-2220.617826,-78294.959896
2439.442442,-1332.370696,-1480.411884,-78141.740796
2439.445020,444.123565,-12435.459826,-76762.768900
2439.447599,740.205942,3849.070898,-73391.948708
2439.450177,-4589.276840,-6809.894666,-84576.942979
2439.452755,1924.535449,-14211.954086,-83044.751983
2439.455333,1924.535449,7994.224174,-77988.521696
2439.457912,-592.164754,-23982.672521,-81052.903688
2439.460490,2812.782580,25167.002028,-67876.061123
2439.463068,-4293.194464,-1628.453072,-82278.656485
2439.465646,5181.441594,9918.759623,-76456.330700
2439.468224,-2072.576638,13471.748144,-85802.695776
2439.470803,-1480.411884,-11991.336260,-86875.229473
2439.473381,6957.935855,11843.295072,-70940.443115
2439.475959,3256.906145,17172.777854,-69255.033019
2439.478536,-3701.029710,-592.164754,-81512.560987
2439.481114,2220.617826,2516.700203,-80133.589091
2439.483692,740.205942,10362.883188,-82585.094684
2439.486270,-740.205942,3256.906145,-83657.628382
2439.488848,-888.247130,7105.977043,-76303.111601
2439.491426,-740.205942,3256.906145,-74770.920605
2439.494004,4293.194464,6069.688724,-73238.729609
2439.496581,-3701.029710,18505.148550,-78907.836294
2439.499159,2220.617826,1036.288319,-86262.353075
2439.501737,1480.411884,8438.347739,-80133.589091
2439.504315,592.164754,8882.471304,-77988.521696
2439.506893,-1184.329507,5033.400406,-72625.853210
2439.509471,2812.782580,19393.395680,-72625.853210
2439.512049,-3552.988522,-2368.659014,-81972.218286
2439.514626,2960.823768,2960.823768,-82431.875585
2439.517204,-1924.535449,-22206.178260,-84883.381178
2439.519782,2664.741391,1332.370696,-75690.235202
2439.522360,-2960.823768,13175.665768,-73698.386908
2439.524938,-3997.112087,-7550.100608,-76762.768900
2439.527516,5181.441594,2664.741391,-75230.577904
2439.530094,-148.041188,4293.194464,-79980.369991
2439.532671,-2220.617826,-15544.324782,-85496.257577
2439.535249,4145.153275,9918.759623,-72625.853210
2439.537827,-1480.411884,1184.329507,-75537.016103
2439.540405,1332.370696,-3997.112087,-75996.673402
2439.542983,740.205942,1480.411884,-80133.589091
2439.545561,-3997.112087,-14656.077652,-85343.038477
2439.548138,2516.700203,-6069.688724,-78601.398095
2439.550716,-2072.576638,5181.441594,-77528.864398
2439.553294,-444.123565,-16136.489536,-76915.987999
2439.555872,1480.411884,6217.729913,-75230.577904
2439.558450,-3701.029710,-148.041188,-83197.971083
2439.561028,148.041188,-20725.766376,-85343.038477
2439.563606,1628.453072,10658.965565,-76303.111601
2439.566183,-2220.617826,-14211.954086,-80286.808190
2439.568761,1332.370696,16432.571912,-70174.347617
2439.571339,-3552.988522,9918.759623,-78141.740796
2439.573917,1332.370696,-3108.864956,-81972.218286
2439.576495,-1628.453072,11991.336260,-83810.847481
2439.579073,-1924.535449,-9474.636058,-85036.600278
2439.581650,2516.700203,3997.112087,-76762.768900
2439.584228,1924.535449,12287.418637,-70327.566716
2439.586806,-4589.276840,-592.164754,-79980.369991
2439.589383,1776.494261,5033.400406,-81818.999186
2439.591961,-2072.576638,8142.265362,-83964.066581
2439.594539,-740.205942,444.123565,-82278.656485
2439.597117,888.247130,7698.141797,-72932.291410
2439.599694,-3256.906145,2664.741391,-76762.768900
2439.602272,2072.576638,12435.459826,-74924.139704
2439.604850,888.247130,10510.924376,-80746.465489
2439.607427,-444.123565,14804.118840,-81818.999186
2439.610005,-592.164754,-444.123565,-81665.780087
2439.612583,-1184.329507,15396.283594,-75843.454302
2439.615160,-592.164754,-1480.411884,-75077.358804
2439.617738,296.082377,23242.466579,-71093.662214
2439.620316,-3701.029710,444.123565,-84576.942979
2439.622894,3552.988522,-15840.407159,-83810.847481
2439.625471,1184.329507,3701.029710,-79214.274493
2439.628049,-4885.359217,-9918.759623,-79367.493593
2439.630627,888.247130,8142.265362,-70021.128517
2439.633204,-1776.494261,9622.677246,-76456.330700
2439.635782,-592.164754,-17912.983796,-85496.257577
2439.638360,-592.164754,-9030.512492,-82431.875585
2439.640937,1036.288319,2368.659014,-77988.521696
2439.643515,-740.205942,148.041188,-75383.797003
2439.646093,-1184.329507,3701.029710,-76303.111601
2439.648671,-740.205942,-4737.318029,-78907.836294
2439.651248,3552.988522,-7994.224174,-82278.656485
2439.653826,-1628.453072,-6365.771101,-82125.437386
2439.656404,3108.864956,-11991.336260,-79520.712692
2439.658981,-1480.411884,1332.370696,-73238.729609
2439.661559,-2516.700203,6957.935855,-74617.701505
2439.664137,-2368.659014,-11695.253884,-83504.409282
2439.666715,3256.906145,-9030.512492,-81512.560987
2439.669292,-1628.453072,-4589.276840,-82431.875585
2439.671870,148.041188,-13175.665768,-78754.617194
2439.674448,1184.329507,18505.148550,-71246.881314
2439.677025,-2072.576638,5329.482782,-79214.274493
2439.679603,1924.535449,10066.800811,-78141.740796
2439.682181,-3849.070898,6957.935855,-86875.229473
2439.684758,-888.247130,-18653.189738,-85036.600278
2439.687336,7254.018232,21910.095883,-71400.100414
2439.689914,-4441.235652,14508.036463,-74311.263306
2439.692491,-2960.823768,-4293.194464,-78294.959896
2439.695069,-592.164754,9918.759623,-80593.246390
2439.697647,-1776.494261,-888.247130,-87334.886772
2439.700225,1628.453072,1924.535449,-82278.656485
2439.702802,-4737.318029,12583.501014,-74311.263306
2439.705380,-4737.318029,4589.276840,-75996.673402
2439.707958,2516.700203,888.247130,-76149.892501
2439.710535,-148.041188,21614.013506,-78448.178995
2439.713113,-2220.617826,4737.318029,-89326.735067
2439.715691,592.164754,-1036.288319,-81206.122788
2439.718268,444.123565,19541.436869,-73851.606007
2439.720846,444.123565,-3108.864956,-74617.701505
2439.723424,888.247130,21762.054695,-71246.881314
2439.726001,-3997.112087,-4441.235652,-86568.791274
2439.728579,3997.112087,-26943.496289,-85496.257577
2439.731157,2220.617826,14211.954086,-77222.426198
2439.733734,-4885.359217,-6365.771101,-81512.560987
2439.736312,4737.318029,7698.141797,-70174.347617
2439.738890,1480.411884,4885.359217,-74924.139704
2439.741468,-1480.411884,-14063.912898,-82891.532884
2439.744045,2960.823768,-3997.112087,-80133.589091
2439.746623,444.123565,-2812.782580,-79827.150892
2439.749201,1628.453072,8290.306550,-74770.920605
2439.751778,-1332.370696,1628.453072,-76915.987999
2439.754356,-2072.576638,-1184.329507,-79980.369991
2439.756934,4441.235652,-5477.523971,-80440.027290
2439.759511,-740.205942,-15840.407159,-81972.218286
2439.762089,444.123565,-9030.512492,-77069.207099
2439.764632,-1332.370696,1332.370696,-74311.263306
2439.767175,-2368.659014,2072.576638,-78754.617194
2439.769717,-740.205942,-6513.812290,-82738.313784
2439.772260,-740.205942,-7550.100608,-81665.780087
2439.774803,444.123565,592.164754,-78754.617194
2439.777346,-296.082377,-14952.160028,-78601.398095
2439.779889,1924.535449,18357.107362,-70174.347617
2439.782431,-3997.112087,20133.601622,-78448.178995
2439.784974,-1480.411884,-7698.141797,-85649.476676
2439.787517,-592.164754,11695.253884,-82738.313784
2439.790060,-2072.576638,-8290.306550,-84730.162079
2439.792602,1776.494261,12435.459826,-72932.291410
2439.795145,-3108.864956,14952.160028,-72472.634111
2439.797688,-1480.411884,-7105.977043,-78754.617194
2439.800231,0.000000,4737.318029,-81206.122788
2439.802774,444.123565,-592.164754,-85036.600278
2439.805316,1480.411884,13027.624579,-79061.055394
2439.807859,-740.205942,9918.759623,-75843.454302
2439.810402,148.041188,-6217.729913,-73545.167808
2439.812945,296.082377,18357.107362,-72166.195912
2439.815488,-1332.370696,8586.388927,-85189.819378
2439.818030,1480.411884,-888.247130,-85189.819378
2439.820573,1332.370696,10066.800811,-79673.931792
2439.823116,-2960.823768,17172.777854,-77528.864398
2439.825659,-2072.576638,9770.718434,-75537.016103
2439.828202,1332.370696,-296.082377,-75843.454302
2439.830744,1628.453072,-6513.812290,-79367.493593
2439.833287,-148.041188,-13027.624579,-83964.066581
2439.835830,1036.288319,-6661.853478,-81512.560987
2439.838373,3404.947333,17468.860231,-74464.482406
2439.840916,-5181.441594,-5921.647536,-79367.493593
2439.843458,1924.535449,4441.235652,-74311.263306
2439.846001,-740.205942,-14804.118840,-82431.875585
2439.848544,-888.247130,-5477.523971,-79673.931792
2439.851087,1036.288319,6513.812290,-76456.330700
2439.853629,-1480.411884,-2368.659014,-78448.178995
2439.856172,444.123565,7254.018232,-78141.740796
2439.858715,-2664.741391,-2368.659014,-83351.190182
2439.861258,-740.205942,-17024.736666,-80133.589091
2439.863801,-444.123565,0.000000,-75230.577904
2439.866352,-1924.535449,-17912.983796,-77835.302597
2439.868901,1776.494261,10362.883188,-71706.538613
2439.871450,-2220.617826,2516.700203,-82278.656485
2439.873999,-148.041188,-10658.965565,-83964.066581
2439.876548,1924.535449,-5477.523971,-82585.094684
2439.879097,-2664.741391,-18357.107362,-79520.712692
2439.881647,2664.741391,12583.501014,-70480.785816
2439.884196,-3849.070898,17468.860231,-75383.797003
2439.886745,-740.205942,10066.800811,-79673.931792
2439.889294,-888.247130,7550.100608,-86415.572174
2439.891843,0.000000,-19837.519246,-86875.229473
2439.894392,-1184.329507,23094.425390,-72625.853210
2439.896942,-2960.823768,-1480.411884,-77069.207099
2439.899491,-296.082377,12731.542202,-70940.443115
2439.902040,-444.123565,0.000000,-81359.341888
2439.904589,-888.247130,-6957.935855,-84117.285680
2439.907138,3552.988522,15248.242405,-80440.027290
2439.909687,-2368.659014,3552.988522,-78294.959896
2439.912237,1036.288319,5625.565159,-74617.701505
2439.914786,1332.370696,8438.347739,-73085.510509
2439.917335,1184.329507,6957.935855,-79520.712692
2439.919884,-444.123565,10362.883188,-83197.971083
2439.922433,-2368.659014,-3108.864956,-84117.285680
2439.924982,3552.988522,20577.725188,-76303.111601
2439.927531,1480.411884,3552.988522,-75690.235202
2439.930081,-1036.288319,19097.313304,-76149.892501
2439.932630,740.205942,8142.265362,-78601.398095
2439.935179,-2812.782580,-41895.656317,-88254.201370
2439.937728,6365.771101,15988.448347,-73238.729609
2439.940277,-148.041188,3997.112087,-81359.341888
2439.942826,2664.741391,2960.823768,-76915.987999
2439.945376,3701.029710,5033.400406,-75537.016103
2439.947925,-1628.453072,-18505.148550,-81818.999186
2439.950474,5033.400406,-1924.535449,-78294.959896
2439.953023,-2368.659014,-6809.894666,-77988.521696
2439.955572,3849.070898,11103.089130,-74311.263306
2439.958121,-592.164754,10066.800811,-78141.740796
2439.960671,-592.164754,-6365.771101,-84576.942979
2439.963220,1924.535449,-9326.594869,-78294.959896
2439.965769,-740.205942,-4737.318029,-78754.617194
2439.968318,-1628.453072,-15396.283594,-76456.330700
2439.970867,2812.782580,10362.883188,-70940.443115
2439.973416,-4441.235652,-148.041188,-81818.999186
2439.975965,2664.741391,-4885.359217,-84270.504780
2439.978515,-1776.494261,-11103.089130,-83504.409282
2439.981064,-3256.906145,-8882.471304,-79061.055394
2439.983613,1036.288319,9030.512492,-73391.948708
2439.986162,-3849.070898,9918.759623,-76149.892501
2439.988716,592.164754,14063.912898,-76303.111601
2439.991270,-2368.659014,4441.235652,-86262.353075
2439.993825,-2664.741391,-17764.942608,-86875.229473
2439.996379,1480.411884,25611.125593,-72472.634111
2439.998933,-6513.812290,3404.947333,-79214.274493
2440.001487,2516.700203,12139.377449,-72779.072310
2440.004041,-1332.370696,-1924.535449,-81665.780087
2440.006595,-296.082377,-8586.388927,-82891.532884
2440.009149,296.082377,11103.089130,-78907.836294
2440.011703,-3997.112087,6661.853478,-76456.330700
2440.014258,-1480.411884,7550.100608,-75690.235202
2440.016812,740.205942,18949.272115,-76303.111601
2440.019366,-148.041188,-11251.130318,-83044.751983
2440.021920,148.041188,21317.931130,-76303.111601
2440.024474,-5477.523971,-7550.100608,-87181.667672
2440.027028,2072.576638,14359.995275,-74004.825107
2440.029582,3108.864956,17320.819043,-73391.948708
2440.032137,-4589.276840,-2072.576638,-77835.302597
2440.034691,3404.947333,8734.430116,-78754.617194
2440.037245,-3108.864956,-25463.084405,-85496.257577
2440.039799,2664.741391,-1480.411884,-77222.426198
2440.042353,-740.205942,19393.395680,-74924.139704
2440.044907,-5477.523971,-5477.523971,-78907.836294
2440.047461,2960.823768,-4145.153275,-75077.358804
2440.050016,-296.082377,-10362.883188,-82125.437386
2440.052570,1036.288319,-4441.235652,-80746.465489
2440.055124,-1036.288319,-1776.494261,-77528.864398
2440.057678,1332.370696,10807.006753,-74770.920605
2440.060232,-1332.370696,-3256.906145,-79061.055394
2440.062786,-1184.329507,444.123565,-78601.398095
2440.065340,-2812.782580,-1776.494261,-78141.740796
2440.067894,592.164754,-16876.695478,-83044.751983
2440.070453,-888.247130,888.247130,-73391.948708
2440.073011,1924.535449,-592.164754,-75077.358804
2440.075569,-3701.029710,10510.924376,-79520.712692
2440.078127,-1036.288319,-17320.819043,-86568.791274
2440.080685,3256.906145,-3108.864956,-79520.712692
2440.083243,-592.164754,-16876.695478,-79367.493593
2440.085801,-1924.535449,25907.207970,-71859.757712
2440.088359,-1036.288319,11103.089130,-78754.617194
2440.090917,-148.041188,-5921.647536,-81359.341888
2440.093476,2072.576638,10066.800811,-79980.369991
2440.096034,-4441.235652,-6069.688724,-85189.819378
2440.098592,2960.823768,10510.924376,-74924.139704
2440.101150,148.041188,16728.654289,-72472.634111
2440.103708,-2812.782580,-2812.782580,-80440.027290
2440.106266,-296.082377,6069.688724,-80746.465489
2440.108824,-3552.988522,-2368.659014,-86262.353075
2440.111382,592.164754,3849.070898,-80593.246390
2440.113940,3108.864956,11251.130318,-73391.948708
2440.116498,-444.123565,7698.141797,-75077.358804
2440.119057,2072.576638,8438.347739,-78601.398095
2440.121615,-1332.370696,6957.935855,-84883.381178
2440.124173,-2072.576638,-2368.659014,-83810.847481
2440.126731,0.000000,21614.013506,-75843.454302
2440.129289,-148.041188,2812.782580,-75690.235202
2440.131847,1332.370696,14656.077652,-71553.319513
2440.134405,-1480.411884,-1776.494261,-81206.122788
2440.136963,-296.082377,-37602.461854,-85802.695776
2440.139521,4441.235652,7402.059420,-77528.864398
2440.142080,-2812.782580,-148.041188,-80899.684589
2440.144638,-296.082377,-5773.606348,-79214.274493
2440.147196,5921.647536,5625.565159,-74311.263306
2440.149754,-2368.659014,-23390.507767,-83657.628382
2440.152312,2368.659014,-5773.606348,-77222.426198
2440.154870,296.082377,3108.864956,-75996.673402
2440.157428,-1776.494261,9622.677246,-76915.987999
2440.159986,888.247130,444.123565,-81818.999186
2440.162544,-444.123565,-3404.947333,-81972.218286
2440.165102,-5033.400406,-13027.624579,-80593.246390
2440.167661,-740.205942,-10510.924376,-77069.207099
2440.170219,-3701.029710,-4885.359217,-73238.729609
2440.172780,1332.370696,6809.894666,-74464.482406
2440.175342,-2812.782580,2960.823768,-82278.656485
2440.177904,1184.329507,-19689.478057,-86415.572174
2440.180465,1480.411884,1332.370696,-80746.465489
2440.183027,-3552.988522,-16136.489536,-80899.684589
2440.185589,-592.164754,19541.436869,-68642.156621
2440.188150,-2516.700203,28423.908173,-73391.948708
2440.190712,-296.082377,-5329.482782,-82125.437386
2440.193274,1480.411884,10510.924376,-82585.094684
2440.195835,-2368.659014,-10658.965565,-86875.229473
2440.198397,-4145.153275,4737.318029,-77528.864398
2440.200959,3552.988522,21614.013506,-70021.128517
2440.203520,-4145.153275,-1332.370696,-79520.712692
2440.206082,0.000000,-2664.741391,-80899.684589
2440.208643,-1628.453072,2812.782580,-81665.780087
2440.211205,592.164754,7105.977043,-81052.903688
2440.213767,-2368.659014,1628.453072,-76762.768900
2440.216328,1036.288319,18505.148550,-72932.291410
2440.218890,1628.453072,12287.418637,-77988.521696
2440.221452,-1036.288319,-2516.700203,-84730.162079
2440.224013,-592.164754,1332.370696,-81052.903688
2440.226575,148.041188,16284.530724,-78448.178995
2440.229137,-444.123565,9326.594869,-75383.797003
2440.231698,888.247130,18209.066173,-73391.948708
2440.234260,-2812.782580,-6069.688724,-82278.656485
2440.236822,1776.494261,-37750.503042,-84270.504780
2440.239383,2072.576638,4885.359217,-77069.207099
2440.241945,-3108.864956,3701.029710,-80133.589091
2440.244507,-2812.782580,9622.677246,-75383.797003
2440.247068,3701.029710,5625.565159,-76456.330700
2440.249630,-3552.988522,-22354.219448,-84730.162079
2440.252192,0.000000,-6217.729913,-79367.493593
2440.254753,-740.205942,-592.164754,-74770.920605
2440.257315,2516.700203,9918.759623,-74924.139704
2440.259877,-444.123565,3997.112087,-80133.589091
2440.262438,-592.164754,-6809.894666,-85496.257577
2440.265000,2072.576638,-15988.448347,-81206.122788
2440.267561,1480.411884,-7698.141797,-76915.987999
2440.270123,-2220.617826,-4589.276840,-74924.139704
2440.272685,3108.864956,1480.411884,-73238.729609
2440.275249,-2664.741391,7994.224174,-78141.740796
2440.277813,-4145.153275,-18949.272115,-88100.982270
2440.280377,-1480.411884,-5625.565159,-82431.875585
2440.282941,1628.453072,-5477.523971,-78448.178995
2440.285505,592.164754,16284.530724,-71859.757712
2440.288069,-888.247130,36270.091158,-72472.634111
2440.290633,-2812.782580,-15396.283594,-85189.819378
2440.293198,4441.235652,5773.606348,-79980.369991
2440.295762,-4589.276840,-2664.741391,-84883.381178
2440.298326,296.082377,13619.789333,-77069.207099
2440.300890,2368.659014,22650.301825,-72166.195912
2440.303454,-888.247130,-12139.377449,-82738.313784
2440.306018,1628.453072,-1036.288319,-78601.398095
2440.308582,-3404.947333,8438.347739,-83504.409282
2440.311146,0.000000,-444.123565,-80746.465489
2440.313710,3404.947333,17024.736666,-71400.100414
2440.316274,-3701.029710,13027.624579,-78601.398095
2440.318838,-1332.370696,0.000000,-80746.465489
2440.321403,3108.864956,6365.771101,-80899.684589
2440.323967,-2812.782580,-1480.411884,-82891.532884
2440.326531,296.082377,13767.830521,-76456.330700
2440.329095,-3849.070898,25611.125593,-73545.167808
2440.331659,-888.247130,-12139.377449,-81972.218286
2440.334223,4589.276840,-6513.812290,-75843.454302
2440.336787,-2960.823768,-19393.395680,-85649.476676
2440.339351,1184.329507,-11399.171507,-79367.493593
2440.341915,296.082377,28868.031738,-73545.167808
2440.344479,-3404.947333,-4589.276840,-82278.656485
2440.347043,2072.576638,-9178.553681,-76915.987999
2440.349608,2516.700203,-15692.365970,-79520.712692
2440.352172,-740.205942,-6365.771101,-78294.959896
2440.354736,-148.041188,2812.782580,-76149.892501
2440.357300,1480.411884,7254.018232,-78601.398095
2440.359864,1776.494261,296.082377,-81512.560987
2440.362428,592.164754,-12583.501014,-83657.628382
2440.364992,-1332.370696,-16284.530724,-80133.589091
2440.367556,-148.041188,-12435.459826,-75077.358804
2440.370120,1036.288319,4885.359217,-70787.224015
2440.372684,-888.247130,9178.553681,-76149.892501
2440.375248,2072.576638,-4885.359217,-85496.257577
2440.377781,1628.453072,-12435.459826,-86109.133975
2440.380314,-1036.288319,-17468.860231,-82585.094684
2440.382846,-740.205942,23094.425390,-68642.156621
2440.385379,-2072.576638,19245.354492,-74464.482406
2440.387911,888.247130,17616.901420,-74924.139704
2440.390444,-1776.494261,2368.659014,-86262.353075
2440.392977,1628.453072,-19541.436869,-87181.667672
2440.395509,0.000000,18505.148550,-75230.577904
2440.398042,-8882.471304,18209.066173,-77069.207099
2440.400574,-1036.288319,13915.871710,-74924.139704
2440.403107,2368.659014,-10066.800811,-81359.341888
2440.405640,-888.247130,1036.288319,-80133.589091
2440.408172,-3997.112087,-2072.576638,-84423.723880
2440.410705,-1776.494261,7402.059420,-76149.892501
2440.413238,3404.947333,23242.466579,-71553.319513
2440.415770,-444.123565,11547.212695,-79673.931792
2440.418303,-1924.535449,-8438.347739,-84270.504780
2440.420835,-444.123565,1924.535449,-81359.341888
2440.423368,-3404.947333,12287.418637,-80286.808190
2440.425901,1628.453072,15100.201217,-74770.920605
2440.428433,740.205942,19245.354492,-70940.443115
2440.430966,-1480.411884,-2368.659014,-81052.903688
2440.433498,592.164754,-39526.997303,-84883.381178
2440.436031,2664.741391,-5181.441594,-78601.398095
2440.438564,740.205942,18801.230927,-77988.521696
2440.441096,-1924.535449,4589.276840,-80133.589091
2440.443629,1924.535449,1776.494261,-75537.016103
2440.446161,-1480.411884,-20873.807564,-80746.465489
2440.448694,1628.453072,-14211.954086,-77988.521696
2440.451227,2072.576638,2516.700203,-74464.482406
2440.453759,-1036.288319,18653.189738,-76915.987999
2440.456292,-296.082377,-2960.823768,-85955.914876
2440.458824,2664.741391,-12139.377449,-83197.971083
2440.461357,2812.782580,-6365.771101,-77528.864398
2440.463890,-1628.453072,-12879.583391,-78448.178995
2440.466422,592.164754,-2516.700203,-70174.347617
2440.468955,2812.782580,18357.107362,-72932.291410
2440.471487,-1480.411884,-10214.842000,-86415.572174
2440.474020,296.082377,-13175.665768,-86415.572174
2440.476553,1184.329507,-17024.736666,-84117.285680
2440.479094,2072.576638,5329.482782,-75077.358804
2440.481636,-5329.482782,30052.361245,-70940.443115
2440.484177,-888.247130,13027.624579,-75690.235202
2440.486719,592.164754,8142.265362,-79214.274493
2440.489261,-1036.288319,-17468.860231,-86722.010374
2440.491802,1480.411884,12879.583391,-76456.330700
2440.494344,-1036.288319,18949.272115,-77682.083497
2440.496885,-2368.659014,15840.407159,-76609.549800
2440.499427,296.082377,-4589.276840,-80899.684589
2440.501969,-1924.535449,-5181.441594,-80286.808190
2440.504510,-5181.441594,-1184.329507,-82431.875585
2440.507052,296.082377,6957.935855,-73391.948708
2440.509593,296.082377,31680.814318,-72472.634111
2440.512135,-1332.370696,8438.347739,-81512.560987
2440.514677,1628.453072,-16580.613101,-86722.010374
2440.517218,1332.370696,2812.782580,-81206.122788
2440.519760,-3404.947333,13767.830521,-79673.931792
2440.522301,-592.164754,20281.642811,-72932.291410
2440.524843,740.205942,11251.130318,-72012.976812
2440.527385,1036.288319,-296.082377,-77988.521696
2440.529926,-2220.617826,-38342.667796,-87794.544071
2440.532468,3701.029710,-12583.501014,-80286.808190
2440.535009,-1776.494261,21762.054695,-77835.302597
2440.537551,-7994.224174,592.164754,-82125.437386
2440.540092,5329.482782,-1480.411884,-76149.892501
2440.542634,4589.276840,-17468.860231,-78141.740796
2440.545176,-2960.823768,-8142.265362,-77835.302597
2440.547717,148.041188,9918.759623,-76456.330700
2440.550259,1036.288319,10066.800811,-78448.178995
2440.552800,1776.494261,3108.864956,-83504.409282
2440.555342,-2220.617826,-14063.912898,-85496.257577
2440.557884,-1480.411884,-24722.878463,-79827.150892
2440.560425,592.164754,-2516.700203,-74004.825107
2440.562967,1036.288319,-5625.565159,-73545.167808
2440.565508,296.082377,19245.354492,-71400.100414
2440.568050,444.123565,-9622.677246,-85496.257577
2440.570592,-1628.453072,-18653.189738,-88867.077768
2440.573133,1628.453072,-7994.224174,-82891.532884
2440.575675,2220.617826,15988.448347,-71400.100414
2440.578216,-444.123565,43376.068201,-68948.594820
2440.580765,-5181.441594,-7846.182985,-81206.122788
2440.583314,4737.318029,-1628.453072,-79061.055394
2440.585862,-2220.617826,-5477.523971,-85036.600278
2440.588411,2220.617826,6957.935855,-81665.780087
2440.590959,6069.688724,26647.413912,-72472.634111
2440.593508,-4145.153275,5625.565159,-78141.740796
2440.596057,148.041188,-10066.800811,-84117.285680
2440.598605,-2368.659014,-4293.194464,-80440.027290
2440.601154,-3552.988522,2220.617826,-77375.645298
2440.603702,2812.782580,18653.189738,-71553.319513
2440.606251,-2960.823768,25018.960840,-75843.454302
2440.608800,-1628.453072,7846.182985,-83964.066581
2440.611348,1480.411884,-13323.706956,-86568.791274
2440.613897,0.000000,9178.553681,-80746.465489
2440.616446,-3849.070898,4589.276840,-77682.083497
2440.618994,-740.205942,31828.855506,-67109.965625
2440.621543,-592.164754,8290.306550,-75996.673402
2440.624091,-444.123565,-42339.779882,-85496.257577
2440.626640,4589.276840,-3404.947333,-79520.712692
2440.629189,-5033.400406,-6217.729913,-87181.667672
2440.631737,888.247130,22058.137072,-74464.482406
2440.634286,-148.041188,5329.482782,-77835.302597
2440.636834,-3108.864956,-16580.613101,-78141.740796
2440.639383,296.082377,-17024.736666,-77528.864398
2440.641932,740.205942,-10066.800811,-75690.235202
2440.644480,2812.782580,10807.006753,-74770.920605
2440.647029,1628.453072,9622.677246,-81512.560987
2440.649577,-444.123565,0.000000,-85189.819378
2440.652126,1776.494261,-24722.878463,-84576.942979
2440.654675,1628.453072,-19097.313304,-75230.577904
2440.657223,740.205942,2072.576638,-67876.061123
2440.659772,-1036.288319,8438.347739,-71553.319513
2440.662320,148.041188,4737.318029,-79214.274493
2440.664869,4293.194464,-13027.624579,-90399.268764
2440.667418,-2220.617826,-25463.084405,-88867.077768
2440.669966,3108.864956,15988.448347,-76762.768900
2440.672515,-3404.947333,22946.384202,-72472.634111
2440.675063,1628.453072,13471.748144,-71093.662214
2440.677612,-888.247130,6217.729913,-79827.150892
2440.680161,296.082377,-27387.619854,-88407.420469
2440.682715,1184.329507,10510.924376,-78754.617194
2440.685270,-1332.370696,26795.455100,-78294.959896
2440.687824,-1036.288319,19541.436869,-78907.836294
2440.690379,4589.276840,-5921.647536,-78294.959896
2440.692933,-2220.617826,-8586.388927,-79367.493593
2440.695488,-2664.741391,-5625.565159,-81359.341888
2440.698042,-2812.782580,10066.800811,-74617.701505
2440.700596,2220.617826,22798.343014,-76609.549800
2440.703151,296.082377,20281.642811,-78294.959896
2440.705705,-2220.617826,-7402.059420,-86415.572174
2440.708260,888.247130,-740.205942,-82891.532884
2440.710814,-148.041188,-2812.782580,-77988.521696
2440.713369,444.123565,36862.255912,-68182.499322
2440.715923,-3404.947333,4737.318029,-77375.645298
2440.718478,4885.359217,-16136.489536,-77528.864398
2440.721032,1480.411884,-20725.766376,-83351.190182
2440.723587,-2664.741391,-18801.230927,-84730.162079
2440.726141,3849.070898,20133.601622,-75996.673402
2440.728696,-3849.070898,11695.253884,-77988.521696
2440.731250,-2368.659014,-16432.571912,-81512.560987
2440.733805,3256.906145,-19837.519246,-75537.016103
2440.736359,-592.164754,-6365.771101,-74924.139704
2440.738914,-3552.988522,6809.894666,-78141.740796
2440.741468,4145.153275,8586.388927,-79214.274493
2440.744023,3108.864956,7550.100608,-81359.341888
2440.746577,-8734.430116,-8882.471304,-87334.886772
2440.749132,1036.288319,-31680.814318,-80746.465489
2440.751686,2664.741391,-6069.688724,-68182.499322
2440.754240,-2368.659014,20725.766376,-70174.347617
2440.756795,-1776.494261,-4737.318029,-81052.903688
2440.759349,7698.141797,-1480.411884,-83810.847481
2440.761904,-3997.112087,-29460.196492,-91931.459760
2440.764458,3256.906145,9770.718434,-78294.959896
2440.767013,-1628.453072,27683.702231,-72932.291410
2440.769567,-592.164754,17912.983796,-71400.100414
2440.772122,444.123565,18209.066173,-74464.482406
2440.774676,-592.164754,-33161.226202,-87334.886772
2440.777231,5181.441594,6661.853478,-77222.426198
2440.779785,-740.205942,29460.196492,-76149.892501
2440.782340,-4145.153275,17320.819043,-81512.560987
2440.784898,3256.906145,9622.677246,-79061.055394
2440.787456,-2664.741391,-25018.960840,-82125.437386
2440.790015,-1924.535449,-3256.906145,-78141.740796
2440.792573,-2960.823768,9326.594869,-74617.701505
2440.795131,2960.823768,21021.848753,-74617.701505
2440.797690,1036.288319,30348.443622,-76762.768900
2440.800248,-3701.029710,-4885.359217,-87334.886772
2440.802807,2516.700203,-6809.894666,-84270.504780
2440.805365,4885.359217,6513.812290,-76609.549800
2440.807923,-1480.411884,17616.901420,-72012.976812
2440.810482,-444.123565,21614.013506,-72625.853210
2440.813040,-3108.864956,-34345.555709,-81818.999186
2440.815598,4145.153275,-13175.665768,-78448.178995
2440.818157,-3108.864956,-11547.212695,-86109.133975
2440.820715,1924.535449,13323.706956,-79214.274493
2440.823273,0.000000,14211.954086,-77988.521696
2440.825832,-3997.112087,-10510.924376,-78601.398095
2440.828390,2368.659014,-9770.718434,-76609.549800
2440.830949,-1776.494261,-12731.542202,-76456.330700
2440.833507,888.247130,3404.947333,-75077.358804
2440.836065,2664.741391,17024.736666,-77222.426198
2440.838624,2664.741391,5477.523971,-83964.066581
2440.841182,-1924.535449,-15100.201217,-87028.448573
2440.843740,1332.370696,-30940.608376,-81512.560987
2440.846299,740.205942,-5033.400406,-68948.594820
2440.848857,-3701.029710,16432.571912,-69255.033019
2440.851415,-740.205942,-3404.947333,-76609.549800
2440.853974,3404.947333,3404.947333,-83044.751983
2440.856532,-2812.782580,-38194.626607,-93923.308055
2440.859090,1036.288319,15544.324782,-78448.178995
2440.861649,-740.205942,38638.750172,-73545.167808
2440.864207,-2368.659014,5033.400406,-74464.482406
2440.866766,1332.370696,7698.141797,-73545.167808
2440.869324,-5033.400406,-18505.148550,-83504.409282
2440.871882,4589.276840,-2664.741391,-80440.027290
2440.874441,-1184.329507,29016.072926,-76149.892501
2440.876999,-5773.606348,21465.972318,-82585.094684
2440.879557,-148.041188,296.082377,-81665.780087
2440.882116,444.123565,-9918.759623,-79980.369991
2440.884674,-1480.411884,-888.247130,-73698.386908
2440.887231,-2368.659014,16580.613101,-72319.415011
2440.889793,-3108.864956,22798.343014,-76762.768900
2440.892355,1628.453072,19245.354492,-79980.369991
2440.894918,740.205942,-9030.512492,-87794.544071
2440.897480,-888.247130,5329.482782,-83504.409282
2440.900042,-1184.329507,8586.388927,-79827.150892
2440.902605,148.041188,12731.542202,-70174.347617
2440.905167,0.000000,14359.995275,-69561.471218
2440.907729,-3849.070898,-40859.367998,-81972.218286
2440.910291,444.123565,-19097.313304,-81818.999186
2440.912854,-444.123565,19985.560434,-81972.218286
2440.915416,-296.082377,-1036.288319,-84730.162079
2440.917978,3108.864956,16876.695478,-74158.044206
2440.920541,-5181.441594,-24574.837274,-80899.684589
2440.923103,2516.700203,-19541.436869,-72932.291410
2440.925665,-296.082377,-4589.276840,-73391.948708
2440.928228,-2220.617826,9770.718434,-76762.768900
2440.930790,2664.741391,17616.901420,-81512.560987
2440.933352,1332.370696,1332.370696,-87947.763170
2440.935914,740.205942,-25611.125593,-85343.038477
2440.938477,2516.700203,-11251.130318,-70480.785816
2440.941039,-2960.823768,-1332.370696,-71246.881314
2440.943601,148.041188,9326.594869,-71400.100414
2440.946164,1036.288319,5329.482782,-80286.808190
2440.948726,-1184.329507,-25315.043216,-91165.364262
2440.951288,2220.617826,2664.741391,-85036.600278
2440.953851,-1480.411884,18653.189738,-78141.740796
2440.956413,1184.329507,22502.260637,-70480.785816
2440.958975,-888.247130,14656.077652,-73545.167808
2440.961537,-2368.659014,-29164.114115,-82278.656485
2440.964100,6069.688724,2664.741391,-76303.111601
2440.966662,-6513.812290,23834.631332,-81359.341888
2440.969224,-4737.318029,19541.436869,-84117.285680
2440.971787,2664.741391,6217.729913,-81052.903688
2440.974349,-2220.617826,-15692.365970,-81665.780087
2440.976911,3404.947333,-4737.318029,-73545.167808
2440.979474,-3552.988522,10658.965565,-72779.072310
2440.982036,-2516.700203,17764.942608,-76609.549800
2440.984598,3997.112087,22206.178260,-78141.740796
2440.987160,-1332.370696,4441.235652,-86109.133975
2440.989725,-2664.741391,-2812.782580,-86415.572174
2440.992290,0.000000,4441.235652,-78601.398095
2440.994854,-888.247130,6365.771101,-72012.976812
2440.997419,1184.329507,7402.059420,-69255.033019
2440.999983,-3256.906145,-22058.137072,-81206.122788
2441.002548,444.123565,-27831.743419,-83504.409282
2441.005113,3108.864956,19245.354492,-80286.808190
2441.007677,-3849.070898,-3701.029710,-87181.667672
2441.010242,3552.988522,15840.407159,-75077.358804
2441.012806,-4885.359217,-15396.283594,-79214.274493
2441.015371,444.123565,-22206.178260,-74158.044206
2441.017935,888.247130,3108.864956,-71246.881314
2441.020500,-2516.700203,-2220.617826,-82125.437386
2441.023065,-1184.329507,9178.553681,-84423.723880
2441.025629,2812.782580,1480.411884,-84730.162079
2441.028194,-3256.906145,-25907.207970,-83964.066581
2441.030758,0.000000,-17468.860231,-74004.825107
2441.033323,-2220.617826,3108.864956,-70174.347617
2441.035888,-1036.288319,148.041188,-74004.825107
2441.038452,1924.535449,10066.800811,-78294.959896
2441.041017,-592.164754,-28868.031738,-91318.583362
2441.043581,2220.617826,9770.718434,-82738.313784
2441.046146,-4293.194464,16580.613101,-80746.465489
2441.048710,1036.288319,26499.372724,-73085.510509
2441.051275,2368.659014,14952.160028,-72166.195912
2441.053840,-3256.906145,-23242.466579,-82738.313784
2441.056404,1184.329507,-2960.823768,-78294.959896
2441.058969,-2960.823768,28423.908173,-78754.617194
2441.061533,444.123565,15100.201217,-85649.476676
2441.064098,5477.523971,6957.935855,-78141.740796
2441.066663,-1480.411884,2072.576638,-79061.055394
2441.069227,-1776.494261,-11547.212695,-79214.274493
2441.071792,1776.494261,2072.576638,-72625.853210
2441.074356,-148.041188,29608.237680,-72932.291410
2441.076921,-1332.370696,11843.295072,-82278.656485
2441.079485,-740.205942,7550.100608,-83351.190182
2441.082050,0.000000,2516.700203,-83197.971083
2441.084615,-2812.782580,3997.112087,-80133.589091
2441.087179,1332.370696,6513.812290,-72779.072310
2441.089744,-148.041188,6365.771101,-70174.347617
2441.092311,-3404.947333,-18949.272115,-81359.341888
2441.094877,444.123565,-23982.672521,-81972.218286
2441.097444,296.082377,18505.148550,-78907.836294
2441.100011,-8142.265362,-2220.617826,-86415.572174
2441.102578,3701.029710,7105.977043,-79520.712692
2441.105145,0.000000,-19245.354492,-76456.330700
2441.107712,-444.123565,-16284.530724,-72319.415011
2441.110278,-444.123565,-740.205942,-73698.386908
2441.112845,-296.082377,10955.047942,-78601.398095
2441.115412,4441.235652,9178.553681,-82278.656485
2441.117979,592.164754,-5477.523971,-85343.038477
2441.120546,-1332.370696,-19837.519246,-83044.751983
2441.123113,148.041188,-14508.036463,-75537.016103
2441.125680,-1036.288319,-3849.070898,-72012.976812
2441.128246,1332.370696,6217.729913,-74464.482406
2441.130813,2812.782580,7698.141797,-80899.684589
2441.133380,-296.082377,-25611.125593,-92084.678860
2441.135947,1924.535449,13175.665768,-80133.589091
2441.138514,-740.205942,27091.537477,-77682.083497
2441.141081,148.041188,12879.583391,-73085.510509
2441.143647,-740.205942,8734.430116,-75077.358804
2441.146214,-296.082377,-17320.819043,-80440.027290
