#time,accel_x,accel_y,accel_z
4990.549301,888.247130,-296.082377,-80286.808190
4990.551697,-740.205942,-13175.665768,-83657.628382
4990.554094,1036.288319,-11991.336260,-80440.027290
4990.556491,-3256.906145,-3997.112087,-79214.274493
4990.558887,1184.329507,6513.812290,-76915.987999
4990.561284,3997.112087,17172.777854,-72625.853210
4990.563681,2220.617826,14508.036463,-76149.892501
4990.566077,2220.617826,16876.695478,-74617.701505
4990.568474,5477.523971,12435.459826,-74464.482406
4990.570871,740.205942,-2516.700203,-79827.150892
4990.573268,-2072.576638,-13767.830521,-81206.122788
4990.575664,-5625.565159,-12583.501014,-79980.369991
4990.578061,5921.647536,-4737.318029,-79520.712692
4990.580458,9178.553681,9030.512492,-75537.016103
4990.582854,11547.212695,18653.189738,-74158.044206
4990.585251,6365.771101,15544.324782,-75383.797003
4990.587648,888.247130,4293.194464,-77069.207099
4990.590044,592.164754,-13471.748144,-81359.341888
4990.592505,444.123565,-16876.695478,-81512.560987
4990.594966,2664.741391,-18357.107362,-83810.847481
4990.597427,-1924.535449,-11251.130318,-82585.094684
4990.599888,-2516.700203,-2812.782580,-80286.808190
4990.602349,4589.276840,12435.459826,-75537.016103
4990.604810,8882.471304,18357.107362,-75537.016103
4990.607271,7105.977043,12879.583391,-73238.729609
4990.609732,-740.205942,3108.864956,-76609.549800
4990.612193,-10510.924376,-17172.777854,-81972.218286
4990.614654,-11991.336260,-12435.459826,-82738.313784
4990.617115,-6513.812290,-8438.347739,-82431.875585
4990.619576,4589.276840,11251.130318,-74924.139704
4990.622037,1776.494261,14063.912898,-75537.016103
4990.624498,5625.565159,19393.395680,-71553.319513
4990.626959,-4441.235652,16876.695478,-74924.139704
4990.629420,-888.247130,10066.800811,-77375.645298
4990.631880,5921.647536,1924.535449,-77375.645298
4990.634341,-6217.729913,-13471.748144,-83044.751983
4990.636802,-1036.288319,-10955.047942,-77682.083497
4990.639263,-6069.688724,-6957.935855,-80440.027290
4990.641724,444.123565,5033.400406,-78294.959896
4990.644185,2072.576638,18061.024985,-73545.167808
4990.646646,3404.947333,13027.624579,-75537.016103
4990.649107,-7402.059420,4293.194464,-75537.016103
4990.651568,-5625.565159,-6069.688724,-79061.055394
4990.654029,-5773.606348,-14359.995275,-79520.712692
4990.656490,1184.329507,-11843.295072,-81818.999186
4990.658951,-8290.306550,-10510.924376,-80746.465489
4990.661412,-7698.141797,-9770.718434,-82891.532884
4990.663873,-6365.771101,9178.553681,-74464.482406
4990.666334,740.205942,18505.148550,-73851.606007
4990.668795,4293.194464,19097.313304,-73238.729609
4990.671256,1332.370696,4885.359217,-77375.645298
4990.673717,-5329.482782,-8882.471304,-82431.875585
4990.676178,-10066.800811,-15248.242405,-83197.971083
4990.678639,-14804.118840,-12435.459826,-79520.712692
4990.681099,-3849.070898,9622.677246,-75077.358804
4990.683560,2220.617826,8290.306550,-76762.768900
4990.686021,7402.059420,10214.842000,-76915.987999
4990.688482,1184.329507,18209.066173,-75996.673402
4990.690983,10214.842000,12879.583391,-76762.768900
4990.693483,5625.565159,5477.523971,-73391.948708
4990.695984,6365.771101,-8142.265362,-81206.122788
4990.698484,1184.329507,-16136.489536,-79827.150892
4990.700985,-7105.977043,-10214.842000,-79673.931792
4990.703485,-3849.070898,1332.370696,-80286.808190
4990.705986,6809.894666,17024.736666,-75690.235202
4990.708486,15544.324782,16728.654289,-73545.167808
4990.710986,8734.430116,12731.542202,-75383.797003
4990.713487,4145.153275,-2960.823768,-75077.358804
4990.715987,148.041188,6513.812290,-74770.920605
4990.718488,3256.906145,-15248.242405,-84730.162079
4990.720988,10066.800811,-11103.089130,-82431.875585
4990.723489,-6217.729913,-10955.047942,-81206.122788
4990.725989,2516.700203,7550.100608,-75843.454302
4990.728490,-4145.153275,15100.201217,-73698.386908
4990.730990,740.205942,13767.830521,-74770.920605
4990.733491,6957.935855,12287.418637,-74464.482406
4990.735991,1036.288319,-7254.018232,-83044.751983
4990.738491,-444.123565,-10510.924376,-80286.808190
4990.740992,0.000000,-10066.800811,-82431.875585
4990.743492,1776.494261,-1776.494261,-77222.426198
4990.745993,13175.665768,12139.377449,-75690.235202
4990.748493,1924.535449,-2516.700203,-79214.274493
4990.750994,9030.512492,13767.830521,-77222.426198
4990.753494,5625.565159,17912.983796,-74770.920605
4990.755995,10066.800811,11695.253884,-73851.606007
4990.758495,6069.688724,-2516.700203,-78754.617194
4990.760996,592.164754,-17912.983796,-83351.190182
4990.763496,-444.123565,-10807.006753,-81052.903688
4990.765996,296.082377,-6957.935855,-79827.150892
4990.768497,11399.171507,14952.160028,-73238.729609
4990.770997,12139.377449,19097.313304,-74464.482406
4990.773498,13619.789333,16284.530724,-72319.415011
4990.775998,6661.853478,18653.189738,-72779.072310
4990.778499,5625.565159,11399.171507,-76609.549800
4990.780999,4441.235652,-9770.718434,-81665.780087
4990.783500,3552.988522,-13915.871710,-79673.931792
4990.786000,-9474.636058,-15544.324782,-82891.532884
4990.788501,-5625.565159,1480.411884,-74924.139704
4990.791029,-8734.430116,13619.789333,-75383.797003
4990.793558,7105.977043,14804.118840,-79214.274493
4990.796087,7254.018232,16432.571912,-72625.853210
4990.798616,5773.606348,20577.725188,-73238.729609
4990.801145,-3404.947333,2812.782580,-75077.358804
4990.803674,-1036.288319,-2072.576638,-78294.959896
4990.806203,-4589.276840,-19837.519246,-83810.847481
4990.808732,740.205942,-11547.212695,-84423.723880
4990.811261,-9770.718434,-14211.954086,-80746.465489
4990.813790,-11103.089130,-7105.977043,-81818.999186
4990.816319,-4293.194464,9770.718434,-75383.797003
4990.818848,2664.741391,18505.148550,-73698.386908
4990.821377,7550.100608,15100.201217,-76303.111601
4990.823906,-2368.659014,6513.812290,-76149.892501
4990.826435,-9474.636058,-14063.912898,-82891.532884
4990.828964,-9918.759623,-14063.912898,-80593.246390
4990.831493,-4589.276840,-7698.141797,-77528.864398
4990.834022,888.247130,2368.659014,-78754.617194
4990.836551,148.041188,15100.201217,-74770.920605
4990.839080,-3108.864956,8438.347739,-76609.549800
4990.841609,-3701.029710,13767.830521,-74924.139704
4990.844138,2960.823768,14952.160028,-74464.482406
4990.846667,-3108.864956,6365.771101,-75537.016103
4990.849196,5033.400406,-10955.047942,-80746.465489
4990.851725,-4293.194464,-14656.077652,-81972.218286
4990.854254,-7550.100608,-9918.759623,-80593.246390
4990.856783,-7698.141797,2516.700203,-76915.987999
4990.859311,1924.535449,13915.871710,-75843.454302
4990.861840,7698.141797,22946.384202,-71400.100414
4990.864369,3108.864956,8586.388927,-76149.892501
4990.866898,-3404.947333,-8586.388927,-81512.560987
4990.869427,-10362.883188,-19541.436869,-85189.819378
4990.871956,740.205942,-14804.118840,-81972.218286
4990.874485,-592.164754,-17912.983796,-82585.094684
4990.877014,-1776.494261,-3997.112087,-78754.617194
4990.879543,-1776.494261,8586.388927,-75996.673402
4990.882072,9178.553681,13323.706956,-77988.521696
4990.884601,10510.924376,16580.613101,-72166.195912
4990.887130,9326.594869,10807.006753,-77069.207099
4990.889659,-3552.988522,-9030.512492,-79520.712692
4990.892102,-6661.853478,-13767.830521,-79673.931792
4990.894544,-6365.771101,-13027.624579,-83504.409282
4990.896987,1036.288319,2072.576638,-79061.055394
4990.899430,10362.883188,-9770.718434,-79827.150892
4990.901872,888.247130,12287.418637,-75843.454302
4990.904315,2960.823768,14804.118840,-74770.920605
4990.906758,8438.347739,20281.642811,-72319.415011
4990.909201,4885.359217,4589.276840,-79214.274493
4990.911643,11547.212695,-10362.883188,-80593.246390
4990.914086,-296.082377,-17172.777854,-81818.999186
4990.916529,-5477.523971,-10066.800811,-80286.808190
4990.918971,-4441.235652,8882.471304,-75537.016103
4990.921414,11547.212695,10362.883188,-77835.302597
4990.923857,12435.459826,18505.148550,-72319.415011
4990.926299,6513.812290,13619.789333,-78141.740796
4990.928742,2072.576638,-7402.059420,-79980.369991
4990.931185,8882.471304,4145.153275,-75996.673402
4990.933628,4737.318029,-6809.894666,-81359.341888
4990.936070,4737.318029,-16284.530724,-82431.875585
4990.938513,-1480.411884,-5477.523971,-79673.931792
4990.940956,1628.453072,2368.659014,-79367.493593
4990.943398,4885.359217,15840.407159,-74158.044206
4990.945841,6809.894666,17024.736666,-74464.482406
4990.948284,12731.542202,11103.089130,-75077.358804
4990.950726,3997.112087,-5329.482782,-79214.274493
4990.953169,-1036.288319,-19245.354492,-84423.723880
4990.955612,-1184.329507,-11695.253884,-79214.274493
4990.958054,-3404.947333,-740.205942,-80746.465489
4990.960497,-5625.565159,-7698.141797,-81512.560987
4990.962940,5477.523971,5329.482782,-75843.454302
4990.965383,8586.388927,20873.807564,-73698.386908
4990.967825,17172.777854,14359.995275,-75843.454302
4990.970268,5329.482782,12435.459826,-72166.195912
4990.972711,-1924.535449,-15396.283594,-84576.942979
4990.975153,-12139.377449,-10362.883188,-79214.274493
4990.977596,-7254.018232,-13767.830521,-82278.656485
4990.980039,-4145.153275,5181.441594,-76915.987999
4990.982481,-888.247130,13471.748144,-76456.330700
4990.984924,444.123565,19541.436869,-70787.224015
4990.987367,-2368.659014,6513.812290,-76762.768900
4990.989856,2664.741391,16136.489536,-75077.358804
4990.992345,2368.659014,7550.100608,-76915.987999
4990.994834,-5033.400406,-13767.830521,-83810.847481
4990.997323,-7846.182985,-12731.542202,-78141.740796
4990.999812,-13471.748144,-11399.171507,-81972.218286
4991.002301,-5477.523971,1480.411884,-76915.987999
4991.004790,5329.482782,19097.313304,-73851.606007
4991.007279,888.247130,16432.571912,-77375.645298
4991.009768,4737.318029,12287.418637,-75383.797003
4991.012257,-6217.729913,-4885.359217,-79214.274493
4991.014746,-4885.359217,-16580.613101,-82585.094684
4991.017235,-5477.523971,-13027.624579,-79980.369991
4991.019724,-3849.070898,-17468.860231,-82431.875585
4991.022213,-6217.729913,-7698.141797,-78907.836294
4991.024703,-10510.924376,4589.276840,-79061.055394
4991.027192,3256.906145,19097.313304,-74311.263306
4991.029681,8882.471304,19541.436869,-72932.291410
4991.032170,1924.535449,7698.141797,-76303.111601
4991.034659,1924.535449,-7550.100608,-78141.740796
4991.037148,-11103.089130,-18949.272115,-83657.628382
4991.039637,-10955.047942,-15100.201217,-82278.656485
4991.042126,-2368.659014,3701.029710,-76149.892501
4991.044615,-4293.194464,15544.324782,-76609.549800
4991.047104,888.247130,20281.642811,-74464.482406
4991.049593,148.041188,19393.395680,-74464.482406
4991.052082,4589.276840,18209.066173,-73698.386908
4991.054571,296.082377,2516.700203,-75843.454302
4991.057060,2812.782580,-9622.677246,-80133.589091
4991.059549,-10066.800811,-19245.354492,-84117.285680
4991.062038,740.205942,-8142.265362,-79520.712692
4991.064527,3552.988522,4441.235652,-78448.178995
4991.067016,9770.718434,14804.118840,-77528.864398
4991.069505,9474.636058,23094.425390,-68948.594820
4991.071994,3701.029710,4589.276840,-77528.864398
4991.074483,4737.318029,-10214.842000,-81359.341888
4991.076973,1184.329507,-10807.006753,-80440.027290
4991.079462,6217.729913,-13471.748144,-83964.066581
4991.081951,-444.123565,-14508.036463,-82891.532884
4991.084440,-3849.070898,-444.123565,-76149.892501
4991.086929,-6069.688724,-1480.411884,-80286.808190
4991.089450,9326.594869,17468.860231,-73085.510509
4991.091973,12583.501014,21762.054695,-72779.072310
4991.094496,7698.141797,2960.823768,-78907.836294
4991.097019,3849.070898,-2220.617826,-77835.302597
4991.099542,-7402.059420,-17024.736666,-84883.381178
4991.102065,-3404.947333,-14804.118840,-83044.751983
4991.104589,-444.123565,4589.276840,-74464.482406
4991.107112,1924.535449,11251.130318,-76609.549800
4991.109635,888.247130,5773.606348,-74617.701505
4991.112158,7994.224174,18209.066173,-74924.139704
4991.114681,13471.748144,16136.489536,-77528.864398
4991.117204,16136.489536,7402.059420,-75996.673402
4991.119728,296.082377,-5921.647536,-77988.521696
4991.122251,-6809.894666,-14952.160028,-81359.341888
4991.124774,-6661.853478,-13175.665768,-80133.589091
4991.127297,3404.947333,-1480.411884,-79827.150892
4991.129820,11103.089130,15396.283594,-74617.701505
4991.132343,10807.006753,21910.095883,-73851.606007
4991.134867,7402.059420,12731.542202,-75383.797003
4991.137390,888.247130,-3552.988522,-78294.959896
4991.139913,3997.112087,3552.988522,-76609.549800
4991.142436,3552.988522,-15100.201217,-81665.780087
4991.144959,4885.359217,-15988.448347,-81512.560987
4991.147482,3108.864956,-10955.047942,-81665.780087
4991.150006,-3997.112087,8290.306550,-76303.111601
4991.152529,-2072.576638,16136.489536,-75230.577904
4991.155052,-6069.688724,24130.713709,-73238.729609
4991.157575,8290.306550,4737.318029,-76303.111601
4991.160098,3849.070898,-5921.647536,-78601.398095
4991.162621,-9918.759623,-17468.860231,-82585.094684
4991.165145,-8438.347739,-10066.800811,-79061.055394
4991.167668,-15100.201217,-4885.359217,-81665.780087
4991.170191,-1480.411884,-6513.812290,-82125.437386
4991.172714,296.082377,8734.430116,-75996.673402
4991.175237,4737.318029,16876.695478,-74464.482406
4991.177760,-1628.453072,22650.301825,-70174.347617
4991.180284,-4293.194464,1332.370696,-77375.645298
4991.182807,296.082377,-10214.842000,-82278.656485
4991.185330,-7402.059420,-15396.283594,-84883.381178
4991.187853,-6957.935855,-12139.377449,-80286.808190
4991.190401,-10955.047942,7550.100608,-75843.454302
4991.192949,9770.718434,10510.924376,-76149.892501
4991.195497,3552.988522,20429.683999,-69561.471218
4991.198045,-888.247130,6661.853478,-77375.645298
4991.200593,4293.194464,18949.272115,-73391.948708
4991.203141,-3404.947333,1036.288319,-80133.589091
4991.205689,-6069.688724,8142.265362,-77375.645298
4991.208237,-1776.494261,-2072.576638,-76762.768900
4991.210785,-1776.494261,-14211.954086,-81512.560987
4991.213333,-5329.482782,-11695.253884,-81512.560987
4991.215881,-2812.782580,-2960.823768,-79214.274493
4991.218429,-2368.659014,6809.894666,-77835.302597
4991.220977,-592.164754,17764.942608,-76456.330700
4991.223525,6513.812290,14952.160028,-71859.757712
4991.226073,3849.070898,8142.265362,-77222.426198
4991.228621,-2220.617826,-17024.736666,-82585.094684
4991.231168,-6217.729913,-10510.924376,-77835.302597
4991.233716,-8438.347739,-16728.654289,-83964.066581
4991.236264,-4589.276840,-16876.695478,-83810.847481
4991.238812,-3849.070898,1628.453072,-77222.426198
4991.241360,8438.347739,9178.553681,-77835.302597
4991.243908,9622.677246,18061.024985,-71553.319513
4991.246456,10066.800811,18505.148550,-74004.825107
4991.249004,1924.535449,-3256.906145,-77988.521696
4991.251552,444.123565,-14508.036463,-79367.493593
4991.254100,-5329.482782,-15692.365970,-83044.751983
4991.256648,2812.782580,-2220.617826,-80440.027290
4991.259196,6661.853478,9326.594869,-76915.987999
4991.261744,6513.812290,16284.530724,-76303.111601
4991.264292,3256.906145,15544.324782,-73238.729609
4991.266840,6069.688724,17912.983796,-72779.072310
4991.269388,7994.224174,11843.295072,-75996.673402
4991.271952,8882.471304,148.041188,-77988.521696
4991.274516,4145.153275,-19393.395680,-85343.038477
4991.277080,-2960.823768,-11547.212695,-80899.684589
4991.279644,-2368.659014,-2812.782580,-78448.178995
4991.282208,3108.864956,8438.347739,-78448.178995
4991.284772,6957.935855,18653.189738,-72625.853210
4991.287336,6217.729913,13027.624579,-73698.386908
4991.289900,3849.070898,1332.370696,-77682.083497
4991.292464,5477.523971,-11103.089130,-81972.218286
4991.295028,8142.265362,-5033.400406,-81359.341888
4991.297592,296.082377,-16580.613101,-82431.875585
4991.300156,-5181.441594,-10362.883188,-79214.274493
4991.302720,-6661.853478,-3849.070898,-79980.369991
4991.305284,9770.718434,12731.542202,-74464.482406
4991.307848,14508.036463,18505.148550,-74311.263306
4991.310412,11843.295072,15988.448347,-74464.482406
4991.312976,4589.276840,888.247130,-77682.083497
4991.315540,-3404.947333,-16136.489536,-84117.285680
4991.318104,-2072.576638,-15692.365970,-81052.903688
4991.320668,740.205942,-4589.276840,-79061.055394
4991.323232,12287.418637,7550.100608,-77528.864398
4991.325797,10214.842000,12287.418637,-76762.768900
4991.328361,-4441.235652,14211.954086,-76456.330700
4991.330925,-444.123565,21762.054695,-71400.100414
4991.333489,-4441.235652,12139.377449,-76762.768900
4991.336053,5625.565159,-10510.924376,-81052.903688
4991.338617,1332.370696,-12435.459826,-79673.931792
4991.341181,-8142.265362,-13767.830521,-83964.066581
4991.343745,-11399.171507,0.000000,-73698.386908
4991.346309,-7994.224174,12731.542202,-78448.178995
4991.348873,3701.029710,16580.613101,-76456.330700
4991.351437,10362.883188,15544.324782,-74311.263306
4991.354001,4589.276840,-2516.700203,-79520.712692
4991.356565,-592.164754,7698.141797,-74158.044206
4991.359129,-8438.347739,-6069.688724,-78754.617194
4991.361693,-8438.347739,-15100.201217,-82431.875585
4991.364257,-7846.182985,-10214.842000,-83044.751983
4991.366821,-3552.988522,2220.617826,-80133.589091
4991.369385,-1776.494261,10362.883188,-77069.207099
4991.371949,2220.617826,20725.766376,-70940.443115
4991.374525,9622.677246,10362.883188,-74770.920605
4991.377100,1628.453072,-4589.276840,-78294.959896
4991.379676,-6957.935855,-13619.789333,-82125.437386
4991.382251,-19689.478057,-13027.624579,-82431.875585
4991.384827,-11843.295072,-740.205942,-79827.150892
4991.387403,0.000000,5773.606348,-78754.617194
4991.389978,296.082377,2072.576638,-76609.549800
4991.392554,2516.700203,18653.189738,-72012.976812
4991.395130,-2516.700203,13471.748144,-74311.263306
4991.397705,-3404.947333,16136.489536,-73085.510509
4991.400281,-5625.565159,-6661.853478,-83810.847481
4991.402857,-1184.329507,-19097.313304,-82891.532884
4991.405432,-3552.988522,-8438.347739,-80286.808190
4991.408008,-5625.565159,-5033.400406,-78294.959896
4991.410584,-4293.194464,12139.377449,-73851.606007
4991.413159,740.205942,20281.642811,-74311.263306
4991.415735,6217.729913,18209.066173,-74158.044206
4991.418310,10214.842000,21317.931130,-74924.139704
4991.420886,11399.171507,4589.276840,-77528.864398
4991.423462,3404.947333,-4293.194464,-77682.083497
4991.426037,-8882.471304,-24278.754898,-84576.942979
4991.428613,-4145.153275,-13619.789333,-81206.122788
4991.431189,6217.729913,8290.306550,-77375.645298
4991.433764,13619.789333,13323.706956,-75996.673402
4991.436340,10658.965565,17024.736666,-74924.139704
4991.438916,6809.894666,9622.677246,-77682.083497
4991.441491,888.247130,-6957.935855,-77988.521696
4991.444067,888.247130,-16432.571912,-82891.532884
4991.446642,6957.935855,-11103.089130,-81665.780087
4991.449218,6957.935855,-1036.288319,-76303.111601
4991.451794,-5329.482782,-9474.636058,-78907.836294
4991.454369,0.000000,6513.812290,-78141.740796
4991.456945,5477.523971,15248.242405,-76456.330700
4991.459521,4737.318029,17616.901420,-74311.263306
4991.462096,4885.359217,9326.594869,-75996.673402
4991.464672,1480.411884,-6957.935855,-79214.274493
4991.467248,4293.194464,-13471.748144,-81512.560987
4991.469823,6809.894666,-14508.036463,-81972.218286
4991.472399,3701.029710,6957.935855,-75996.673402
4991.474974,296.082377,12731.542202,-77988.521696
4991.477556,4441.235652,19985.560434,-74311.263306
4991.480138,7698.141797,13619.789333,-74158.044206
4991.482721,18357.107362,18061.024985,-74158.044206
4991.485303,12879.583391,2516.700203,-75996.673402
4991.487885,1924.535449,-9030.512492,-80133.589091
4991.490467,-10214.842000,-15692.365970,-84576.942979
4991.493049,-4145.153275,-11399.171507,-81512.560987
4991.495631,4441.235652,7254.018232,-77835.302597
4991.498213,12583.501014,13471.748144,-76762.768900
4991.500795,9030.512492,23390.507767,-68795.375720
4991.503377,-7254.018232,5033.400406,-78294.959896
4991.505959,-9622.677246,-4885.359217,-78448.178995
4991.508541,-7254.018232,-18061.024985,-82431.875585
4991.511123,296.082377,-11547.212695,-82891.532884
4991.513705,-6809.894666,-19097.313304,-85649.476676
4991.516287,-10510.924376,-3404.947333,-76456.330700
4991.518869,-13027.624579,740.205942,-77835.302597
4991.521451,1036.288319,22798.343014,-72319.415011
4991.524033,9918.759623,17024.736666,-74770.920605
4991.526615,6365.771101,7254.018232,-76915.987999
4991.529197,-5773.606348,-8734.430116,-81665.780087
4991.531779,-7846.182985,-18949.272115,-81665.780087
4991.534361,-14063.912898,-6809.894666,-78754.617194
4991.536943,-1036.288319,592.164754,-78754.617194
4991.539525,11251.130318,15692.365970,-72319.415011
4991.542107,10807.006753,19393.395680,-75690.235202
4991.544689,-296.082377,16580.613101,-77835.302597
4991.547271,4293.194464,15544.324782,-72932.291410
4991.549853,4441.235652,3701.029710,-77528.864398
4991.552435,-4885.359217,-13619.789333,-81818.999186
4991.555017,-9178.553681,-11547.212695,-78907.836294
4991.557599,-10362.883188,-10214.842000,-80133.589091
4991.560181,-8734.430116,3997.112087,-77988.521696
4991.562763,10066.800811,16136.489536,-76149.892501
4991.565345,4589.276840,17024.736666,-74924.139704
4991.567927,-148.041188,11843.295072,-75230.577904
4991.570509,-4737.318029,-8882.471304,-79367.493593
4991.573091,-12435.459826,-14804.118840,-81818.999186
4991.575673,-8438.347739,-11695.253884,-83197.971083
4991.578255,-3849.070898,-15544.324782,-80593.246390
4991.580842,-2812.782580,-7402.059420,-80746.465489
4991.583428,-1332.370696,13619.789333,-76609.549800
4991.586015,-4441.235652,16580.613101,-74464.482406
4991.588601,10510.924376,18209.066173,-74311.263306
4991.591187,12435.459826,2516.700203,-77069.207099
4991.593774,9326.594869,-11103.089130,-80133.589091
4991.596360,-4145.153275,-15100.201217,-79214.274493
4991.598947,-8290.306550,-10066.800811,-79827.150892
4991.601533,2664.741391,1628.453072,-80286.808190
4991.604120,14804.118840,21762.054695,-75843.454302
4991.606706,11991.336260,7550.100608,-78754.617194
4991.609293,6809.894666,17616.901420,-70787.224015
4991.611879,1480.411884,20725.766376,-70174.347617
4991.614466,1036.288319,-4737.318029,-81206.122788
4991.617052,7698.141797,-10510.924376,-80440.027290
4991.619638,5181.441594,-13767.830521,-85649.476676
4991.622225,-2368.659014,-8882.471304,-82891.532884
4991.624811,-5625.565159,-7550.100608,-77835.302597
4991.627398,-1480.411884,-4589.276840,-78294.959896
4991.629984,4293.194464,11399.171507,-73851.606007
4991.632571,4441.235652,18949.272115,-74464.482406
4991.635157,5773.606348,11843.295072,-78141.740796
4991.637744,11103.089130,-592.164754,-79980.369991
4991.640330,7994.224174,-10955.047942,-80286.808190
4991.642916,3997.112087,-5181.441594,-78141.740796
4991.645503,-5477.523971,-15396.283594,-80440.027290
4991.648089,-3849.070898,-13915.871710,-81665.780087
4991.650676,1480.411884,1036.288319,-79673.931792
4991.653262,9770.718434,14063.912898,-75537.016103
4991.655849,8734.430116,22946.384202,-72319.415011
4991.658435,8882.471304,14211.954086,-75383.797003
4991.661022,4441.235652,-4293.194464,-77835.302597
4991.663608,-1924.535449,-14656.077652,-82891.532884
4991.666195,148.041188,-17024.736666,-82278.656485
4991.668781,8586.388927,-3256.906145,-78448.178995
4991.671367,-4293.194464,10510.924376,-76762.768900
4991.673954,-10066.800811,3701.029710,-76149.892501
4991.676540,-12139.377449,19837.519246,-73238.729609
4991.679127,1924.535449,14211.954086,-78448.178995
4991.681713,14063.912898,13767.830521,-73698.386908
4991.684303,-296.082377,-7846.182985,-81512.560987
4991.686892,-13915.871710,-15692.365970,-78907.836294
4991.689482,-13915.871710,-13619.789333,-81206.122788
4991.692072,-3849.070898,888.247130,-80286.808190
4991.694661,4589.276840,13027.624579,-77069.207099
4991.697251,2960.823768,20725.766376,-73698.386908
4991.699841,-6957.935855,14952.160028,-73698.386908
4991.702430,-6069.688724,-8142.265362,-76915.987999
4991.705020,2220.617826,11103.089130,-73391.948708
4991.707609,1776.494261,-15692.365970,-86262.353075
4991.710199,-6365.771101,-10214.842000,-79827.150892
4991.712789,-6661.853478,-10658.965565,-83657.628382
4991.715378,-3849.070898,2664.741391,-76915.987999
4991.717968,4737.318029,13027.624579,-72932.291410
4991.720558,-444.123565,17912.983796,-72779.072310
4991.723147,-5033.400406,9474.636058,-75537.016103
4991.725737,-1924.535449,-5033.400406,-79520.712692
4991.728326,-8882.471304,-15396.283594,-84883.381178
4991.730916,-740.205942,-11991.336260,-81818.999186
4991.733506,-4145.153275,-1628.453072,-75537.016103
4991.736095,-13471.748144,-8142.265362,-78907.836294
4991.738685,-7994.224174,3849.070898,-76915.987999
4991.741275,3552.988522,14508.036463,-75383.797003
4991.743864,1628.453072,21910.095883,-75383.797003
4991.746454,4737.318029,4737.318029,-77375.645298
4991.749043,-1924.535449,-3404.947333,-78294.959896
4991.751633,-15396.283594,-17764.942608,-83810.847481
4991.754223,-6069.688724,-10658.965565,-79214.274493
4991.756812,10066.800811,740.205942,-78601.398095
4991.759402,10510.924376,9622.677246,-76762.768900
4991.761992,12287.418637,24278.754898,-72932.291410
4991.764581,1628.453072,10510.924376,-76609.549800
4991.767171,10807.006753,16580.613101,-75230.577904
4991.769760,11399.171507,9178.553681,-74004.825107
4991.772350,10658.965565,-14656.077652,-83504.409282
4991.774940,3256.906145,-16284.530724,-82125.437386
4991.777529,-5033.400406,-10658.965565,-79061.055394
4991.780119,-4589.276840,6957.935855,-77375.645298
4991.782709,5921.647536,16136.489536,-74924.139704
4991.785298,16580.613101,19837.519246,-73545.167808
4991.787826,15988.448347,11843.295072,-77682.083497
4991.790354,-740.205942,-8586.388927,-79827.150892
4991.792881,-3701.029710,-17172.777854,-80440.027290
4991.795409,-4737.318029,-11547.212695,-80440.027290
4991.797936,-740.205942,-15840.407159,-81972.218286
4991.800464,296.082377,-5181.441594,-80440.027290
4991.802992,3997.112087,8142.265362,-78294.959896
4991.805519,12583.501014,14359.995275,-75230.577904
4991.808047,10807.006753,16876.695478,-72472.634111
4991.810575,3256.906145,10214.842000,-73545.167808
4991.813102,-1036.288319,-12435.459826,-81359.341888
4991.815630,-2220.617826,-15248.242405,-82585.094684
4991.818157,-740.205942,-9622.677246,-81665.780087
4991.820685,6513.812290,1184.329507,-80593.246390
4991.823213,6217.729913,17912.983796,-73545.167808
4991.825740,8142.265362,19689.478057,-70480.785816
4991.828268,5921.647536,24426.796086,-71246.881314
4991.830796,13619.789333,13767.830521,-77682.083497
4991.833323,14063.912898,8882.471304,-75843.454302
4991.835851,-9030.512492,-14063.912898,-84117.285680
4991.838379,-11991.336260,-15692.365970,-79980.369991
4991.840906,-18061.024985,-9326.594869,-78294.959896
4991.843434,-5033.400406,3552.988522,-78754.617194
4991.845961,12731.542202,18801.230927,-75230.577904
4991.848489,6661.853478,19541.436869,-74311.263306
4991.851017,-6217.729913,10066.800811,-74770.920605
4991.853544,-8734.430116,-10066.800811,-80746.465489
4991.856072,-5477.523971,-14359.995275,-80899.684589
4991.858600,444.123565,-15248.242405,-83044.751983
4991.861127,-8882.471304,-18357.107362,-81512.560987
4991.863655,-11251.130318,-4145.153275,-78141.740796
4991.866183,-12583.501014,7994.224174,-77069.207099
4991.868710,6365.771101,18653.189738,-73085.510509
4991.871238,8290.306550,23686.590144,-72012.976812
4991.873765,888.247130,-444.123565,-81665.780087
4991.876293,-3849.070898,-8586.388927,-78754.617194
4991.878821,-4737.318029,-15100.201217,-83351.190182
4991.881348,-7994.224174,-12139.377449,-79061.055394
4991.883876,-6661.853478,6513.812290,-75077.358804
4991.886404,-7846.182985,16876.695478,-75383.797003
4991.888948,1628.453072,4737.318029,-80899.684589
4991.891492,2072.576638,18209.066173,-74158.044206
4991.894037,6365.771101,12287.418637,-77375.645298
4991.896581,0.000000,5477.523971,-72166.195912
4991.899125,-12435.459826,-13027.624579,-80593.246390
4991.901670,-7698.141797,-16876.695478,-81972.218286
4991.904214,-9326.594869,-2220.617826,-81359.341888
4991.906759,444.123565,-1480.411884,-81665.780087
4991.909303,2812.782580,19985.560434,-72166.195912
4991.911847,-148.041188,20873.807564,-74004.825107
4991.914392,-1332.370696,6661.853478,-73698.386908
4991.916936,11843.295072,-9326.594869,-80133.589091
4991.919480,5773.606348,-22206.178260,-82125.437386
4991.922025,3108.864956,-8438.347739,-81665.780087
4991.924569,-11695.253884,-18209.066173,-82278.656485
4991.927114,-4441.235652,-7105.977043,-78294.959896
4991.929658,6217.729913,13915.871710,-73085.510509
4991.932202,14211.954086,16728.654289,-75537.016103
4991.934747,16728.654289,15396.283594,-75690.235202
4991.937291,5329.482782,1332.370696,-78294.959896
4991.939836,-5625.565159,-9030.512492,-78294.959896
4991.942380,-5329.482782,-16136.489536,-81512.560987
4991.944924,3552.988522,-7550.100608,-79214.274493
4991.947469,11399.171507,5773.606348,-78141.740796
4991.950013,888.247130,-4737.318029,-81206.122788
4991.952557,-148.041188,9770.718434,-76149.892501
4991.955102,6809.894666,18949.272115,-71859.757712
4991.957646,3256.906145,12287.418637,-76303.111601
4991.960191,8586.388927,1628.453072,-79061.055394
4991.962735,3404.947333,-10362.883188,-80440.027290
4991.965279,-1628.453072,-19245.354492,-84883.381178
4991.967824,296.082377,-5921.647536,-79367.493593
4991.970368,1776.494261,8882.471304,-74004.825107
4991.972912,9178.553681,16728.654289,-76303.111601
4991.975457,12879.583391,20133.601622,-74004.825107
4991.978001,12139.377449,5921.647536,-76915.987999
4991.980546,592.164754,-11399.171507,-82278.656485
4991.983090,2072.576638,-4737.318029,-79367.493593
4991.985634,3108.864956,-12287.418637,-78907.836294
4991.988179,1480.411884,-18209.066173,-82738.313784
4991.990736,5625.565159,-296.082377,-77375.645298
4991.993294,-5329.482782,9474.636058,-78754.617194
4991.995851,-3849.070898,12879.583391,-75230.577904
4991.998409,-11251.130318,20725.766376,-71400.100414
4992.000966,2812.782580,-4145.153275,-80746.465489
4992.003524,296.082377,-5477.523971,-76609.549800
4992.006081,-1924.535449,-17468.860231,-85036.600278
4992.008639,-11103.089130,-3997.112087,-77988.521696
4992.011196,-13767.830521,-17172.777854,-84730.162079
4992.013754,-7698.141797,740.205942,-77682.083497
4992.016312,5773.606348,9178.553681,-76915.987999
4992.018869,7402.059420,20873.807564,-72472.634111
4992.021427,3701.029710,16876.695478,-73391.948708
4992.023984,-7550.100608,-6217.729913,-78907.836294
4992.026542,-4737.318029,-9918.759623,-81052.903688
4992.029099,-3849.070898,-14952.160028,-83044.751983
4992.031657,-592.164754,-3849.070898,-79673.931792
4992.034214,1332.370696,11251.130318,-76149.892501
4992.036772,-4589.276840,13767.830521,-74924.139704
4992.039329,4885.359217,13175.665768,-75843.454302
4992.041887,-2368.659014,16284.530724,-77069.207099
4992.044444,-592.164754,10807.006753,-74464.482406
4992.047002,3849.070898,20577.725188,-71706.538613
4992.049560,2220.617826,1628.453072,-78754.617194
4992.052117,-3256.906145,-6809.894666,-78601.398095
4992.054675,-15248.242405,-17468.860231,-82278.656485
4992.057232,-8734.430116,-12879.583391,-80286.808190
4992.059790,-9326.594869,6661.853478,-77375.645298
4992.062347,7550.100608,14656.077652,-76762.768900
4992.064905,2072.576638,20281.642811,-72472.634111
4992.067462,6661.853478,9030.512492,-77528.864398
4992.070020,-6217.729913,-4145.153275,-77375.645298
4992.072577,-1628.453072,-18209.066173,-82891.532884
4992.075135,4589.276840,-14656.077652,-80440.027290
4992.077692,3552.988522,-12879.583391,-85343.038477
4992.080250,-2220.617826,-9474.636058,-80286.808190
4992.082808,-12731.542202,6069.688724,-74770.920605
4992.085365,2368.659014,18653.189738,-74464.482406
4992.087923,12139.377449,18505.148550,-73391.948708
4992.090480,20725.766376,6365.771101,-77835.302597
4992.093043,1776.494261,-8882.471304,-81359.341888
4992.095609,-5477.523971,-14508.036463,-82278.656485
4992.098175,-9178.553681,-8882.471304,-80286.808190
4992.100742,-1036.288319,1036.288319,-79367.493593
4992.103308,8438.347739,17024.736666,-73545.167808
4992.105874,8142.265362,17024.736666,-75537.016103
4992.108441,8586.388927,17468.860231,-73545.167808
4992.111007,5921.647536,19393.395680,-74311.263306
4992.113573,4885.359217,2220.617826,-77835.302597
4992.116140,14359.995275,-9918.759623,-80286.808190
4992.118706,-1036.288319,-17320.819043,-84270.504780
4992.121272,-740.205942,-9918.759623,-80440.027290
4992.123838,5625.565159,5773.606348,-75996.673402
4992.126405,5477.523971,13027.624579,-75537.016103
4992.128971,16876.695478,21465.972318,-71246.881314
4992.131537,9178.553681,7698.141797,-77835.302597
4992.134104,7994.224174,-9918.759623,-82278.656485
4992.136670,-3256.906145,-11547.212695,-75077.358804
4992.139236,-592.164754,-16136.489536,-81512.560987
4992.141803,-2516.700203,-13471.748144,-80286.808190
4992.144369,2960.823768,-8438.347739,-80899.684589
4992.146935,3404.947333,9918.759623,-75537.016103
4992.149502,-4737.318029,17320.819043,-77528.864398
4992.152068,-3256.906145,20577.725188,-72779.072310
4992.154634,-3552.988522,6809.894666,-74004.825107
4992.157201,-296.082377,-10658.965565,-80746.465489
4992.159767,-3404.947333,-19097.313304,-82585.094684
4992.162333,-10362.883188,-8734.430116,-81818.999186
4992.164900,-11103.089130,3256.906145,-77682.083497
4992.167466,-4737.318029,16284.530724,-74924.139704
4992.170032,-2368.659014,10510.924376,-75690.235202
4992.172599,8290.306550,15692.365970,-75077.358804
4992.175165,5329.482782,15840.407159,-74464.482406
4992.177731,3256.906145,5329.482782,-75230.577904
4992.180298,-444.123565,-15840.407159,-81818.999186
4992.182864,-7698.141797,-12879.583391,-81665.780087
4992.185430,-1924.535449,-7846.182985,-81818.999186
4992.187997,-3701.029710,2516.700203,-78448.178995
4992.190563,6957.935855,15840.407159,-73085.510509
4992.193129,-4737.318029,14804.118840,-73851.606007
4992.195703,592.164754,5625.565159,-76762.768900
4992.198276,-1184.329507,-6069.688724,-80133.589091
4992.200850,592.164754,444.123565,-79980.369991
4992.203423,-2812.782580,-10807.006753,-81359.341888
4992.205997,-10214.842000,-14656.077652,-81512.560987
4992.208571,-9770.718434,-10510.924376,-80746.465489
4992.211144,-7698.141797,5181.441594,-73545.167808
4992.213718,-3552.988522,19393.395680,-75690.235202
4992.216291,8586.388927,17468.860231,-75383.797003
4992.218865,5181.441594,7254.018232,-75996.673402
4992.221438,740.205942,-5625.565159,-81512.560987
4992.224012,-8290.306550,-18505.148550,-80899.684589
4992.226585,-2368.659014,-11547.212695,-78754.617194
4992.229159,7105.977043,-1036.288319,-79520.712692
4992.231732,5181.441594,-3404.947333,-82278.656485
4992.234306,1184.329507,7550.100608,-76915.987999
4992.236879,-10510.924376,20873.807564,-73698.386908
4992.239453,9326.594869,18357.107362,-74158.044206
4992.242027,11547.212695,1480.411884,-76609.549800
4992.244600,14211.954086,-13471.748144,-81359.341888
4992.247174,2072.576638,-14211.954086,-81052.903688
4992.249747,-5329.482782,-9918.759623,-81818.999186
4992.252321,-1924.535449,8882.471304,-76915.987999
4992.254894,2220.617826,16580.613101,-76303.111601
4992.257468,7698.141797,17024.736666,-72166.195912
4992.260041,7550.100608,7846.182985,-76149.892501
4992.262615,5477.523971,12287.418637,-74311.263306
4992.265188,4441.235652,1628.453072,-77222.426198
4992.267762,4737.318029,-11547.212695,-81972.218286
4992.270336,5625.565159,-10955.047942,-82431.875585
4992.272909,2368.659014,-8290.306550,-79980.369991
4992.275483,1776.494261,5477.523971,-75996.673402
4992.278056,5329.482782,14952.160028,-75230.577904
4992.280630,11103.089130,15692.365970,-73698.386908
4992.283203,12435.459826,8438.347739,-75537.016103
4992.285777,6809.894666,-9918.759623,-82738.313784
4992.288350,2220.617826,-12583.501014,-80746.465489
4992.290924,-5625.565159,-15396.283594,-82125.437386
4992.293497,-444.123565,-15988.448347,-81206.122788
4992.296071,5773.606348,-6661.853478,-79214.274493
4992.298648,11399.171507,7254.018232,-76915.987999
4992.301226,3997.112087,20725.766376,-74464.482406
4992.303804,-1924.535449,17764.942608,-73085.510509
4992.306381,-12287.418637,5181.441594,-75996.673402
4992.308959,-5477.523971,-14359.995275,-84883.381178
4992.311536,1184.329507,-17172.777854,-83044.751983
4992.314114,740.205942,-8586.388927,-79520.712692
4992.316692,-12435.459826,6513.812290,-74770.920605
4992.319269,-7994.224174,14656.077652,-75537.016103
4992.321847,592.164754,22650.301825,-74617.701505
4992.324424,6957.935855,13323.706956,-77835.302597
4992.327002,7698.141797,15692.365970,-72932.291410
4992.329579,-4737.318029,1924.535449,-76609.549800
4992.332157,-17912.983796,-14656.077652,-80440.027290
4992.334735,-6513.812290,-15396.283594,-81206.122788
4992.337312,-2072.576638,-4293.194464,-81512.560987
4992.339890,-592.164754,6513.812290,-77835.302597
4992.342467,1924.535449,16580.613101,-74924.139704
4992.345045,-7402.059420,15988.448347,-74311.263306
4992.347623,-3256.906145,4589.276840,-74924.139704
4992.350200,-3256.906145,-6809.894666,-77528.864398
4992.352778,-6217.729913,-16728.654289,-83810.847481
4992.355355,-5477.523971,-6809.894666,-80286.808190
4992.357933,-13027.624579,-17764.942608,-83351.190182
4992.360510,-6365.771101,-3701.029710,-79367.493593
4992.363088,-7846.182985,4293.194464,-77375.645298
4992.365666,4293.194464,19689.478057,-73851.606007
4992.368243,6217.729913,15840.407159,-75537.016103
4992.370821,1628.453072,4441.235652,-77835.302597
4992.373398,-7994.224174,-6809.894666,-79214.274493
4992.375976,-10955.047942,-18209.066173,-84730.162079
4992.378553,6661.853478,-7402.059420,-79214.274493
4992.381131,7698.141797,0.000000,-77528.864398
4992.383709,12139.377449,21169.889941,-75077.358804
4992.386286,-4441.235652,8734.430116,-78754.617194
4992.388864,2960.823768,17024.736666,-74004.825107
4992.391441,11399.171507,18357.107362,-72779.072310
4992.394019,13619.789333,-1480.411884,-79827.150892
4992.396597,14508.036463,-13175.665768,-79980.369991
4992.399174,-6365.771101,-14211.954086,-81206.122788
4992.401755,-3256.906145,-9326.594869,-82125.437386
4992.404335,-2664.741391,11103.089130,-74158.044206
4992.406916,11251.130318,16432.571912,-77988.521696
4992.409496,19245.354492,17024.736666,-73085.510509
4992.412077,3256.906145,4737.318029,-76915.987999
4992.414657,1184.329507,-10955.047942,-80440.027290
4992.417238,-592.164754,-15100.201217,-81052.903688
4992.419818,1480.411884,-11843.295072,-83504.409282
4992.422399,3849.070898,-9474.636058,-81359.341888
4992.424979,1628.453072,-5477.523971,-80899.684589
4992.427560,4145.153275,7105.977043,-76762.768900
4992.430140,6365.771101,17172.777854,-72472.634111
4992.432721,15692.365970,12879.583391,-74158.044206
4992.435301,10362.883188,5625.565159,-76915.987999
4992.437882,4145.153275,-9326.594869,-83351.190182
4992.440462,-4441.235652,-15988.448347,-81972.218286
4992.443043,-6957.935855,-5921.647536,-79520.712692
4992.445623,10807.006753,1924.535449,-76762.768900
4992.448204,18209.066173,-3849.070898,-77988.521696
4992.450784,148.041188,10807.006753,-77375.645298
4992.453365,-6365.771101,19245.354492,-72932.291410
4992.455945,-9178.553681,14952.160028,-74464.482406
4992.458526,4737.318029,2368.659014,-79520.712692
4992.461106,9622.677246,7846.182985,-78601.398095
4992.463687,-2220.617826,-3108.864956,-77528.864398
4992.466267,-14211.954086,-14804.118840,-80746.465489
4992.468848,-14508.036463,-15396.283594,-82585.094684
4992.471428,-6513.812290,3701.029710,-77988.521696
4992.474009,5329.482782,5921.647536,-79827.150892
4992.476589,6513.812290,19689.478057,-73238.729609
4992.479170,1332.370696,16284.530724,-71859.757712
4992.481750,-10362.883188,-2072.576638,-77528.864398
4992.484334,6365.771101,10214.842000,-74004.825107
4992.486918,3701.029710,-6365.771101,-81818.999186
4992.489501,-4885.359217,-14804.118840,-84117.285680
4992.492085,-14211.954086,-10955.047942,-80593.246390
4992.494669,-13915.871710,-2220.617826,-79061.055394
4992.497253,-3404.947333,15248.242405,-72012.976812
4992.499836,5033.400406,17172.777854,-72932.291410
4992.502420,3256.906145,10510.924376,-77528.864398
4992.505004,-6217.729913,-1184.329507,-78907.836294
4992.507587,-10214.842000,-14656.077652,-83657.628382
4992.510171,-14656.077652,-13619.789333,-82891.532884
4992.512755,-8734.430116,-1332.370696,-80593.246390
4992.515339,-3849.070898,-14063.912898,-79520.712692
4992.517922,-5033.400406,2664.741391,-79061.055394
4992.520506,-1184.329507,16876.695478,-75996.673402
4992.523090,1628.453072,23834.631332,-73238.729609
4992.525674,18801.230927,10214.842000,-76762.768900
4992.528257,9474.636058,-8586.388927,-79367.493593
4992.530841,3108.864956,-12583.501014,-81818.999186
4992.533425,-5477.523971,-17616.901420,-83044.751983
4992.536009,-7254.018232,-1332.370696,-77069.207099
4992.538592,5921.647536,17172.777854,-75996.673402
4992.541176,15396.283594,17616.901420,-76149.892501
4992.543760,16876.695478,13175.665768,-73238.729609
4992.546344,7994.224174,20281.642811,-72012.976812
4992.548927,1628.453072,3108.864956,-77682.083497
4992.551511,4293.194464,-4885.359217,-80286.808190
4992.554095,3108.864956,-17616.901420,-84423.723880
4992.556678,8290.306550,-11695.253884,-79061.055394
4992.559262,-2368.659014,296.082377,-78907.836294
4992.561846,-3552.988522,12583.501014,-74464.482406
4992.564430,6069.688724,14508.036463,-73851.606007
4992.567013,11695.253884,10955.047942,-76609.549800
4992.569597,10658.965565,2368.659014,-78141.740796
4992.572181,2960.823768,-15544.324782,-84117.285680
4992.574765,1776.494261,-12731.542202,-81665.780087
4992.577348,-1924.535449,-13767.830521,-79980.369991
4992.579932,296.082377,-12139.377449,-80746.465489
4992.582516,8290.306550,2960.823768,-79367.493593
4992.585100,8882.471304,18653.189738,-74770.920605
4992.587684,5921.647536,17764.942608,-75230.577904
4992.590268,7994.224174,13915.871710,-74924.139704
4992.592853,13619.789333,-8586.388927,-79980.369991
4992.595437,0.000000,-17468.860231,-81359.341888
4992.598021,-7105.977043,-14359.995275,-81972.218286
4992.600606,-15692.365970,2812.782580,-76303.111601
4992.603190,-4737.318029,9178.553681,-77528.864398
4992.605774,8734.430116,22798.343014,-73545.167808
4992.608359,5181.441594,12287.418637,-77988.521696
4992.610943,-592.164754,20725.766376,-72012.976812
4992.613527,-2664.741391,5033.400406,-76303.111601
4992.616112,-5625.565159,-8586.388927,-80440.027290
4992.618696,-5329.482782,-11843.295072,-81206.122788
4992.621280,-4885.359217,-13175.665768,-82891.532884
4992.623865,-1036.288319,-148.041188,-79061.055394
4992.626449,-2960.823768,17172.777854,-71400.100414
4992.629034,-3256.906145,12287.418637,-74924.139704
4992.631618,6365.771101,17172.777854,-71400.100414
4992.634202,5477.523971,-1628.453072,-81512.560987
4992.636787,-4293.194464,-13619.789333,-81665.780087
4992.639371,-4737.318029,-5181.441594,-79214.274493
4992.641955,-15840.407159,-17172.777854,-81512.560987
4992.644540,-9030.512492,-14508.036463,-79673.931792
4992.647124,-3849.070898,5181.441594,-74924.139704
4992.649708,-740.205942,12287.418637,-77835.302597
4992.652293,-2220.617826,24278.754898,-72012.976812
4992.654877,2072.576638,8586.388927,-78754.617194
4992.657461,-6365.771101,-1184.329507,-79673.931792
4992.660046,740.205942,-18653.189738,-83197.971083
4992.662630,-3404.947333,-14508.036463,-79980.369991
4992.665214,-7105.977043,-296.082377,-79061.055394
4992.667799,-5625.565159,10510.924376,-76456.330700
4992.670383,7994.224174,5625.565159,-78448.178995
4992.672967,10955.047942,12583.501014,-76303.111601
4992.675552,15692.365970,25018.960840,-71706.538613
4992.678136,6957.935855,6069.688724,-75843.454302
4992.680721,592.164754,-7254.018232,-79061.055394
4992.683305,-4293.194464,-12731.542202,-81665.780087
4992.685889,6069.688724,-16432.571912,-83504.409282
4992.688474,6957.935855,888.247130,-76915.987999
4992.691058,3997.112087,11547.212695,-76303.111601
4992.693643,7105.977043,20281.642811,-73238.729609
4992.696228,3701.029710,12879.583391,-75843.454302
4992.698813,4145.153275,-592.164754,-78601.398095
4992.701398,14508.036463,8142.265362,-72932.291410
4992.703982,4589.276840,-11251.130318,-82891.532884
4992.706567,-3552.988522,-13471.748144,-79980.369991
4992.709152,-888.247130,-12139.377449,-79827.150892
4992.711737,8734.430116,148.041188,-79367.493593
4992.714322,11843.295072,13915.871710,-76456.330700
4992.716906,12583.501014,17912.983796,-75690.235202
4992.719491,6809.894666,13323.706956,-74158.044206
4992.722076,4441.235652,-7105.977043,-78141.740796
4992.724661,7698.141797,-11695.253884,-80593.246390
4992.727246,6069.688724,-15840.407159,-84730.162079
4992.729830,3997.112087,-3108.864956,-78141.740796
4992.732415,-5773.606348,-4589.276840,-78601.398095
4992.735000,4885.359217,-296.082377,-80593.246390
4992.737585,11843.295072,19689.478057,-72012.976812
4992.740170,4441.235652,18653.189738,-74004.825107
4992.742754,1628.453072,6365.771101,-74924.139704
4992.745339,-13915.871710,-444.123565,-76762.768900
4992.747924,-11991.336260,-21465.972318,-87488.105872
4992.750509,-1332.370696,-8438.347739,-80133.589091
4992.753094,2220.617826,-2220.617826,-80440.027290
4992.755678,-3701.029710,12879.583391,-73391.948708
4992.758263,-1332.370696,14804.118840,-73698.386908
4992.760848,-1924.535449,13915.871710,-74158.044206
4992.763433,9326.594869,15100.201217,-76456.330700
4992.766018,4589.276840,8586.388927,-76609.549800
4992.768602,-2368.659014,-3997.112087,-80133.589091
4992.771187,-5477.523971,-13027.624579,-79367.493593
4992.773772,-5477.523971,-15544.324782,-81818.999186
4992.776357,5921.647536,1036.288319,-75843.454302
4992.778942,-1776.494261,11547.212695,-76609.549800
4992.781526,-1184.329507,14952.160028,-77682.083497
4992.784111,-6957.935855,14211.954086,-74311.263306
4992.786696,-7698.141797,-5625.565159,-80440.027290
4992.789281,-2368.659014,-10214.842000,-79673.931792
4992.791866,-5329.482782,-16284.530724,-80593.246390
4992.794403,-9918.759623,-13619.789333,-80593.246390
4992.796941,-13323.706956,-14508.036463,-83351.190182
4992.799478,-14211.954086,3108.864956,-78601.398095
4992.802015,2072.576638,14211.954086,-76456.330700
4992.804553,7994.224174,20281.642811,-72472.634111
4992.807090,8586.388927,14508.036463,-74464.482406
4992.809628,-4293.194464,-5773.606348,-77528.864398
4992.812165,-2220.617826,-15248.242405,-82125.437386
4992.814703,1036.288319,-19393.395680,-85496.257577
4992.817240,5773.606348,-444.123565,-80133.589091
4992.819778,7550.100608,14656.077652,-73698.386908
4992.822315,2072.576638,19393.395680,-72779.072310
4992.824853,6809.894666,13767.830521,-73238.729609
4992.827390,10362.883188,17616.901420,-73391.948708
4992.829927,16728.654289,7698.141797,-76762.768900
4992.832465,5329.482782,-7550.100608,-81206.122788
4992.835002,-5181.441594,-13175.665768,-79827.150892
4992.837540,-9622.677246,-10066.800811,-81512.560987
4992.840077,7550.100608,148.041188,-79520.712692
4992.842615,12287.418637,11843.295072,-75537.016103
4992.845152,12731.542202,14063.912898,-76609.549800
4992.847690,3108.864956,14508.036463,-72472.634111
4992.850227,3701.029710,-3108.864956,-77988.521696
4992.852765,9030.512492,-13915.871710,-82431.875585
4992.855302,16284.530724,-3404.947333,-81359.341888
4992.857839,-5921.647536,-13767.830521,-83810.847481
4992.860377,-4441.235652,-12435.459826,-80899.684589
4992.862914,-592.164754,-2664.741391,-78294.959896
4992.865452,9770.718434,13915.871710,-74158.044206
4992.867989,14359.995275,20577.725188,-71553.319513
4992.870527,11251.130318,9770.718434,-77528.864398
4992.873064,2220.617826,-444.123565,-79673.931792
4992.875602,1332.370696,-17764.942608,-84117.285680
4992.878139,-2516.700203,-11103.089130,-81206.122788
4992.880677,-3701.029710,-22058.137072,-82278.656485
4992.883214,-15692.365970,-3997.112087,-75996.673402
4992.885752,-3552.988522,-444.123565,-79673.931792
4992.888289,1924.535449,21762.054695,-72319.415011
4992.890826,1924.535449,16580.613101,-78141.740796
4992.893364,-888.247130,20725.766376,-72012.976812
4992.895911,-740.205942,13619.789333,-74770.920605
4992.898459,-2664.741391,-296.082377,-76915.987999
4992.901006,296.082377,-9622.677246,-79367.493593
4992.903554,-7254.018232,-18209.066173,-82585.094684
4992.906101,-7402.059420,-7846.182985,-80593.246390
4992.908649,-8290.306550,10510.924376,-75690.235202
4992.911196,0.000000,15100.201217,-75690.235202
4992.913744,10807.006753,19541.436869,-73851.606007
4992.916291,0.000000,5773.606348,-76149.892501
4992.918839,-6809.894666,-13915.871710,-82738.313784
4992.921386,-10510.924376,-1628.453072,-77988.521696
4992.923934,-7105.977043,-17468.860231,-84423.723880
4992.926481,-8142.265362,-13471.748144,-82125.437386
4992.929029,444.123565,-3849.070898,-79367.493593
4992.931576,148.041188,9622.677246,-76915.987999
4992.934124,-5033.400406,17024.736666,-73391.948708
4992.936671,888.247130,16432.571912,-74004.825107
4992.939219,740.205942,-740.205942,-78448.178995
4992.941766,0.000000,-11103.089130,-80440.027290
4992.944314,-9326.594869,-15840.407159,-82891.532884
4992.946861,-3997.112087,-6513.812290,-80746.465489
4992.949409,3997.112087,5921.647536,-75690.235202
4992.951956,7550.100608,14952.160028,-74464.482406
4992.954504,8438.347739,19689.478057,-72625.853210
4992.957051,2072.576638,14211.954086,-76915.987999
4992.959599,6513.812290,16284.530724,-73238.729609
4992.962146,2072.576638,-148.041188,-78907.836294
4992.964694,3849.070898,-16432.571912,-82891.532884
4992.967241,4441.235652,-14063.912898,-81359.341888
4992.969789,3849.070898,-4589.276840,-78907.836294
4992.972336,3404.947333,11103.089130,-74924.139704
4992.974884,4885.359217,20577.725188,-73391.948708
4992.977431,-3701.029710,16136.489536,-75230.577904
4992.979979,8734.430116,888.247130,-80899.684589
4992.982526,-4293.194464,8586.388927,-77682.083497
4992.985074,8142.265362,-4293.194464,-77988.521696
4992.987621,1332.370696,-14656.077652,-79061.055394
4992.990169,3404.947333,-13027.624579,-81818.999186
4992.992716,5773.606348,1924.535449,-77375.645298
4992.995264,4737.318029,11695.253884,-78907.836294
4992.997819,7846.182985,17320.819043,-75383.797003
4993.000375,7254.018232,14804.118840,-75537.016103
4993.002931,6661.853478,-2664.741391,-77835.302597
4993.005486,6365.771101,-17320.819043,-81206.122788
4993.008042,-2220.617826,-11695.253884,-79520.712692
4993.010598,-4589.276840,-5773.606348,-81206.122788
4993.013153,11547.212695,12731.542202,-76762.768900
4993.015709,-5033.400406,1628.453072,-81972.218286
4993.018264,-740.205942,18653.189738,-72779.072310
4993.020820,-3849.070898,15988.448347,-72012.976812
4993.023376,3404.947333,9178.553681,-75690.235202
4993.025931,2072.576638,-6661.853478,-80440.027290
4993.028487,-740.205942,-18949.272115,-83044.751983
4993.031043,-11991.336260,-9474.636058,-79827.150892
4993.033598,-12287.418637,148.041188,-77682.083497
4993.036154,-888.247130,13915.871710,-76456.330700
4993.038709,7846.182985,17616.901420,-75843.454302
4993.041265,1776.494261,11991.336260,-73851.606007
4993.043821,-8586.388927,-1332.370696,-72472.634111
4993.046376,-1480.411884,8882.471304,-73391.948708
4993.048932,-1628.453072,-10214.842000,-82585.094684
4993.051488,148.041188,-11251.130318,-82738.313784
4993.054043,-11991.336260,-9326.594869,-82585.094684
4993.056599,-10807.006753,3108.864956,-77069.207099
4993.059154,-6217.729913,15692.365970,-75077.358804
4993.061710,592.164754,17320.819043,-72012.976812
4993.064266,6661.853478,7254.018232,-76303.111601
4993.066821,1776.494261,-2960.823768,-79827.150892
4993.069377,-15988.448347,-20281.642811,-84730.162079
4993.071933,-18357.107362,-10066.800811,-83964.066581
4993.074488,-5477.523971,-2960.823768,-78754.617194
4993.077044,-148.041188,-7846.182985,-78601.398095
4993.079600,-4293.194464,8438.347739,-74004.825107
4993.082155,-1628.453072,17024.736666,-75077.358804
4993.084711,10658.965565,21910.095883,-74158.044206
4993.087266,6069.688724,1924.535449,-79214.274493
4993.089822,7698.141797,-4441.235652,-80133.589091
4993.092378,-1480.411884,-19541.436869,-83044.751983
4993.094933,-11843.295072,-9918.759623,-77988.521696
4993.097489,1036.288319,6661.853478,-75690.235202
4993.100049,2812.782580,14063.912898,-76303.111601
4993.102611,13323.706956,20429.683999,-74004.825107
4993.105173,11547.212695,8882.471304,-77835.302597
4993.107735,10214.842000,15248.242405,-75690.235202
4993.110298,8438.347739,2812.782580,-76762.768900
4993.112860,4145.153275,-13323.706956,-80593.246390
4993.115422,296.082377,-16728.654289,-81972.218286
4993.117985,2664.741391,-9474.636058,-81359.341888
4993.120547,5921.647536,10807.006753,-74617.701505
4993.123109,8586.388927,16876.695478,-76303.111601
4993.125672,18209.066173,12731.542202,-75690.235202
4993.128234,13471.748144,7550.100608,-74924.139704
4993.130796,-2220.617826,-10955.047942,-83197.971083
4993.133359,1332.370696,-15988.448347,-81052.903688
4993.135921,-1036.288319,-6957.935855,-79520.712692
4993.138483,3108.864956,-15544.324782,-82891.532884
4993.141046,3849.070898,-2072.576638,-77835.302597
4993.143608,1776.494261,8290.306550,-79214.274493
4993.146170,9770.718434,21614.013506,-72779.072310
4993.148733,-444.123565,15100.201217,-74004.825107
4993.151295,3108.864956,-4145.153275,-79061.055394
4993.153857,-14804.118840,-5625.565159,-78294.959896
4993.156419,-5329.482782,-23686.590144,-85955.914876
4993.158982,-3849.070898,4589.276840,-75690.235202
4993.161544,-5921.647536,3552.988522,-81665.780087
4993.164106,-2072.576638,22650.301825,-70480.785816
4993.166669,-4293.194464,13767.830521,-77375.645298
4993.169231,2812.782580,16728.654289,-74464.482406
4993.171793,7846.182985,16580.613101,-72625.853210
4993.174356,-3849.070898,-6365.771101,-79980.369991
4993.176918,-14952.160028,-13619.789333,-82585.094684
4993.179480,-11103.089130,-12583.501014,-83657.628382
4993.182043,-3404.947333,-4737.318029,-77222.426198
4993.184605,5033.400406,11251.130318,-74464.482406
4993.187167,1924.535449,19837.519246,-73545.167808
4993.189730,-2368.659014,11991.336260,-74617.701505
4993.192292,-4885.359217,-1184.329507,-78294.959896
4993.194854,-7846.182985,-12435.459826,-82891.532884
4993.197416,-4441.235652,-16876.695478,-82431.875585
4993.199979,-1480.411884,-13915.871710,-79214.274493
4993.202545,-18505.148550,-11251.130318,-80133.589091
4993.205112,-9474.636058,-296.082377,-78448.178995
4993.207679,-2368.659014,14804.118840,-74770.920605
4993.210246,5625.565159,17616.901420,-76149.892501
4993.212812,9622.677246,12879.583391,-75843.454302
4993.215379,-1776.494261,-1036.288319,-79827.150892
4993.217946,1776.494261,-20281.642811,-82585.094684
4993.220512,-592.164754,-15396.283594,-78754.617194
4993.223079,4145.153275,148.041188,-79367.493593
4993.225646,4441.235652,10510.924376,-74464.482406
4993.228212,8586.388927,22206.178260,-74158.044206
4993.230779,5181.441594,21910.095883,-76456.330700
4993.233346,15248.242405,16876.695478,-74617.701505
4993.235912,9326.594869,8882.471304,-73851.606007
4993.238479,5773.606348,-15544.324782,-83504.409282
4993.241046,-1184.329507,-16284.530724,-78601.398095
4993.243612,-9178.553681,-9918.759623,-80899.684589
4993.246179,3997.112087,2516.700203,-79520.712692
4993.248746,5477.523971,18061.024985,-74311.263306
4993.251312,7550.100608,15396.283594,-75537.016103
4993.253879,8290.306550,10066.800811,-76149.892501
4993.256446,15692.365970,-8586.388927,-79980.369991
4993.259012,3701.029710,-14804.118840,-79827.150892
4993.261579,8142.265362,-10066.800811,-80440.027290
4993.264146,-6365.771101,-16580.613101,-81665.780087
4993.266712,-5181.441594,-6217.729913,-83351.190182
4993.269279,3552.988522,6957.935855,-78141.740796
4993.271846,12583.501014,16136.489536,-74770.920605
4993.274412,11399.171507,21614.013506,-72779.072310
4993.276979,12139.377449,5625.565159,-74464.482406
4993.279546,2368.659014,-9030.512492,-78294.959896
4993.282113,-11695.253884,-17616.901420,-85955.914876
4993.284679,-5477.523971,-10658.965565,-81512.560987
4993.287246,-9770.718434,6217.729913,-76609.549800
4993.289813,-740.205942,15692.365970,-77835.302597
4993.292379,7550.100608,11695.253884,-75077.358804
4993.294946,1628.453072,17468.860231,-74004.825107
4993.297513,-7254.018232,17468.860231,-75537.016103
4993.300079,1776.494261,18357.107362,-74158.044206
4993.302646,3256.906145,13915.871710,-75383.797003
4993.305216,2220.617826,-9770.718434,-83197.971083
4993.307786,-13471.748144,-18209.066173,-81206.122788
4993.310356,-12287.418637,-10510.924376,-80286.808190
4993.312927,-5033.400406,-1184.329507,-78294.959896
4993.315497,4885.359217,15396.283594,-72319.415011
4993.318067,3701.029710,18801.230927,-74311.263306
4993.320637,-6069.688724,10066.800811,-76915.987999
4993.323207,-10510.924376,-2812.782580,-79827.150892
4993.325777,-1924.535449,1628.453072,-79214.274493
4993.328347,-444.123565,-9918.759623,-78141.740796
4993.330918,-2516.700203,-14211.954086,-81206.122788
4993.333488,-13915.871710,-11103.089130,-79980.369991
4993.336058,-10658.965565,5921.647536,-75230.577904
4993.338628,-4441.235652,14656.077652,-78141.740796
4993.341198,7994.224174,18505.148550,-77528.864398
4993.343768,1776.494261,10658.965565,-73698.386908
4993.346339,1776.494261,-6809.894666,-80899.684589
4993.348909,2664.741391,-17468.860231,-80746.465489
4993.351479,-1924.535449,-18061.024985,-80286.808190
4993.354049,5329.482782,8438.347739,-77988.521696
4993.356619,1184.329507,14063.912898,-85189.819378
4993.359189,7846.182985,11399.171507,-75383.797003
4993.361759,5181.441594,22798.343014,-71859.757712
4993.364330,10658.965565,11547.212695,-75077.358804
4993.366900,7698.141797,3701.029710,-73698.386908
4993.369470,7105.977043,-15544.324782,-84117.285680
4993.372040,-2368.659014,-16876.695478,-81512.560987
4993.374610,3701.029710,-6069.688724,-80286.808190
4993.377180,2664.741391,8438.347739,-78448.178995
4993.379751,4293.194464,14804.118840,-74311.263306
4993.382321,9474.636058,14952.160028,-73851.606007
4993.384891,6661.853478,3997.112087,-77375.645298
4993.387461,13027.624579,9474.636058,-78141.740796
4993.390031,10807.006753,-1184.329507,-75843.454302
4993.392601,-3701.029710,-12731.542202,-82891.532884
4993.395171,-8734.430116,-14211.954086,-83197.971083
4993.397742,4737.318029,-2516.700203,-79367.493593
4993.400312,7402.059420,7105.977043,-78448.178995
4993.402882,15100.201217,19541.436869,-71859.757712
4993.405452,7846.182985,17616.901420,-72012.976812
4993.408024,5033.400406,-5181.441594,-80899.684589
4993.410596,-5921.647536,-7402.059420,-78907.836294
4993.413168,-14508.036463,-22798.343014,-87641.324971
4993.415740,-13323.706956,0.000000,-77835.302597
4993.418313,-740.205942,8142.265362,-79214.274493
4993.420885,-4145.153275,4441.235652,-75230.577904
4993.423457,-4737.318029,14656.077652,-74770.920605
4993.426029,-4145.153275,21169.889941,-72166.195912
4993.428601,-3849.070898,10510.924376,-79061.055394
4993.431173,296.082377,-5477.523971,-80899.684589
4993.433745,-2220.617826,-10807.006753,-80899.684589
4993.436317,-6365.771101,-14656.077652,-82125.437386
4993.438889,-15988.448347,-1184.329507,-75383.797003
4993.441461,-3552.988522,11399.171507,-74311.263306
4993.444034,2072.576638,18949.272115,-74311.263306
4993.446606,2368.659014,12139.377449,-75996.673402
4993.449178,-5921.647536,-1776.494261,-79214.274493
4993.451750,-10214.842000,9030.512492,-74770.920605
4993.454322,-6513.812290,-11547.212695,-82431.875585
4993.456894,-4885.359217,-19245.354492,-80899.684589
4993.459466,0.000000,-6809.894666,-78294.959896
4993.462038,-9474.636058,-888.247130,-79980.369991
4993.464610,-2220.617826,15544.324782,-76609.549800
4993.467182,-1480.411884,21762.054695,-71859.757712
4993.469755,-740.205942,9918.759623,-76762.768900
4993.472327,5329.482782,-3108.864956,-78601.398095
4993.474899,-5033.400406,-21465.972318,-84576.942979
4993.477471,6957.935855,-12583.501014,-79980.369991
4993.480043,296.082377,-2516.700203,-77375.645298
4993.482615,7846.182985,15544.324782,-81512.560987
4993.485187,3108.864956,7254.018232,-76915.987999
4993.487759,10955.047942,13915.871710,-74924.139704
4993.490331,9474.636058,22650.301825,-73545.167808
4993.492903,7254.018232,2516.700203,-75843.454302
4993.495476,9178.553681,-12435.459826,-79061.055394
4993.498048,-3552.988522,-17320.819043,-83197.971083
4993.500620,-1480.411884,-7402.059420,-80593.246390
4993.503192,-8882.471304,4737.318029,-77375.645298
4993.505764,7846.182985,15248.242405,-76762.768900
4993.508336,7402.059420,21910.095883,-69101.813920
4993.510910,3552.988522,6661.853478,-76456.330700
4993.513484,10066.800811,-6957.935855,-72472.634111
4993.516058,17024.736666,1924.535449,-78141.740796
4993.518632,6809.894666,-9770.718434,-83044.751983
4993.521206,-1332.370696,-14656.077652,-81818.999186
4993.523780,-1036.288319,-2812.782580,-77528.864398
4993.526353,1480.411884,7105.977043,-77375.645298
4993.528927,12731.542202,13915.871710,-73545.167808
4993.531501,14656.077652,21169.889941,-72472.634111
4993.534075,9918.759623,1332.370696,-79980.369991
4993.536649,3552.988522,-9030.512492,-79061.055394
4993.539223,-11103.089130,-15692.365970,-85343.038477
4993.541797,-11695.253884,-16136.489536,-82125.437386
4993.544371,-14508.036463,10955.047942,-73085.510509
4993.546945,1628.453072,-12139.377449,-83810.847481
4993.549519,-888.247130,17320.819043,-71093.662214
4993.552093,2220.617826,21317.931130,-75843.454302
4993.554666,-3997.112087,17764.942608,-72625.853210
4993.557240,-8882.471304,444.123565,-80286.808190
4993.559814,-2960.823768,-18801.230927,-84423.723880
4993.562388,-6217.729913,-11103.089130,-79061.055394
4993.564962,-4737.318029,-6365.771101,-78754.617194
4993.567536,-13767.830521,9474.636058,-74617.701505
4993.570110,1776.494261,21614.013506,-72625.853210
4993.572684,-296.082377,15248.242405,-77835.302597
4993.575258,3256.906145,2960.823768,-78907.836294
4993.577832,1628.453072,15396.283594,-72932.291410
4993.580406,-15544.324782,-6365.771101,-78754.617194
4993.582980,-10807.006753,-18357.107362,-79827.150892
4993.585553,-6365.771101,-14508.036463,-80593.246390
4993.588127,-3256.906145,-444.123565,-80440.027290
4993.590701,-2664.741391,13323.706956,-74770.920605
4993.593275,-5329.482782,24574.837274,-74464.482406
4993.595849,-5625.565159,11695.253884,-77069.207099
4993.598423,5181.441594,-1036.288319,-76303.111601
4993.600997,-2368.659014,-17468.860231,-82125.437386
4993.603571,2664.741391,-16580.613101,-81206.122788
4993.606145,2960.823768,-444.123565,-77988.521696
4993.608719,6809.894666,5033.400406,-82278.656485
4993.611293,1480.411884,9474.636058,-75537.016103
4993.613827,5181.441594,15248.242405,-75843.454302
4993.616361,13915.871710,17764.942608,-74311.263306
4993.618895,14952.160028,10658.965565,-73085.510509
4993.621429,9030.512492,-11251.130318,-80593.246390
4993.623963,-3108.864956,-14952.160028,-81972.218286
4993.626497,-1628.453072,-12731.542202,-82431.875585
4993.629031,-3108.864956,444.123565,-80746.465489
4993.631565,-2516.700203,14359.995275,-75537.016103
4993.634099,3997.112087,18653.189738,-73238.729609
4993.636633,4737.318029,11695.253884,-73545.167808
4993.639167,2072.576638,-4737.318029,-76762.768900
4993.641701,11843.295072,6661.853478,-76456.330700
4993.644235,2072.576638,-7994.224174,-83657.628382
4993.646769,1332.370696,-15692.365970,-83504.409282
4993.649303,-4737.318029,-2812.782580,-78294.959896
4993.651837,1184.329507,4589.276840,-76762.768900
4993.654372,10807.006753,13619.789333,-73698.386908
4993.656906,13767.830521,19245.354492,-72779.072310
4993.659440,10362.883188,10807.006753,-74311.263306
4993.661974,2368.659014,-7994.224174,-81972.218286
4993.664508,-9326.594869,-15840.407159,-83351.190182
4993.667042,-10214.842000,-15544.324782,-83351.190182
4993.669576,-11399.171507,4737.318029,-77069.207099
4993.672110,-592.164754,12287.418637,-75383.797003
4993.674644,3404.947333,11547.212695,-71859.757712
4993.677178,-5181.441594,18801.230927,-75383.797003
4993.679712,-2516.700203,17320.819043,-76456.330700
4993.682246,-6809.894666,6069.688724,-77835.302597
4993.684780,-3256.906145,-14063.912898,-84117.285680
4993.687314,-2516.700203,-11991.336260,-78907.836294
4993.689848,-6661.853478,-9178.553681,-80133.589091
4993.692382,-1036.288319,3552.988522,-74770.920605
4993.694916,1480.411884,19245.354492,-72625.853210
4993.697450,888.247130,16580.613101,-76609.549800
4993.699985,1036.288319,7698.141797,-79214.274493
4993.702519,-6661.853478,-7994.224174,-82431.875585
4993.705053,-8586.388927,-1332.370696,-77069.207099
4993.707587,-5477.523971,-14804.118840,-79214.274493
4993.710121,-6069.688724,-16284.530724,-79520.712692
4993.712655,-7105.977043,-8290.306550,-78754.617194
4993.715159,-15840.407159,-8290.306550,-81512.560987
4993.717663,-10362.883188,-592.164754,-82278.656485
4993.720167,-1184.329507,16284.530724,-75537.016103
4993.722671,5773.606348,23686.590144,-70021.128517
4993.725175,3108.864956,5773.606348,-75077.358804
4993.727679,13027.624579,-3849.070898,-76915.987999
4993.730183,-888.247130,-20873.807564,-83044.751983
4993.732687,2812.782580,-11251.130318,-84423.723880
4993.735192,-1628.453072,3404.947333,-78754.617194
4993.737696,3552.988522,-8882.471304,-82585.094684
4993.740200,1036.288319,10510.924376,-73085.510509
4993.742704,9622.677246,14359.995275,-74924.139704
4993.745208,11843.295072,15988.448347,-72012.976812
4993.747712,2812.782580,4441.235652,-76456.330700
4993.750216,740.205942,-8734.430116,-83810.847481
4993.752720,4145.153275,-13471.748144,-83810.847481
4993.755224,-592.164754,-7105.977043,-79980.369991
4993.757728,-1776.494261,2368.659014,-77069.207099
4993.760232,8290.306550,13027.624579,-73545.167808
4993.762736,15248.242405,14656.077652,-73085.510509
4993.765240,17764.942608,9030.512492,-77222.426198
4993.767745,9918.759623,-7698.141797,-80746.465489
4993.770249,5625.565159,5329.482782,-77682.083497
4993.772753,0.000000,-10658.965565,-82431.875585
4993.775257,1924.535449,-19837.519246,-81206.122788
4993.777761,8586.388927,-7105.977043,-78601.398095
4993.780265,5625.565159,3701.029710,-76915.987999
4993.782769,14211.954086,18801.230927,-72625.853210
4993.785273,1628.453072,19837.519246,-75383.797003
4993.787777,-740.205942,2072.576638,-79367.493593
4993.790281,-12435.459826,-2516.700203,-78141.740796
4993.792785,-6217.729913,-24426.796086,-87028.448573
4993.795305,2368.659014,-4589.276840,-74464.482406
4993.797825,-5181.441594,1628.453072,-77988.521696
4993.800345,-15248.242405,-1184.329507,-76303.111601
4993.802865,-13619.789333,13175.665768,-77069.207099
4993.805385,888.247130,17616.901420,-78448.178995
4993.807904,0.000000,21465.972318,-71859.757712
4993.810424,-3256.906145,-2812.782580,-79827.150892
4993.812944,-9770.718434,-14359.995275,-79214.274493
4993.815464,-5921.647536,-15988.448347,-80899.684589
4993.817984,888.247130,-5033.400406,-80440.027290
4993.820504,296.082377,11399.171507,-78448.178995
4993.823023,-296.082377,20873.807564,-74770.920605
4993.825543,-8290.306550,15840.407159,-76149.892501
4993.828063,-3256.906145,1480.411884,-77222.426198
4993.830583,-4737.318029,-14952.160028,-79980.369991
4993.833103,-888.247130,-6957.935855,-76762.768900
4993.835622,-11103.089130,-9178.553681,-81206.122788
4993.838142,-14508.036463,-15248.242405,-84883.381178
4993.840662,-9622.677246,148.041188,-80133.589091
4993.843182,-3404.947333,13915.871710,-76915.987999
4993.845702,9326.594869,17764.942608,-72012.976812
4993.848222,16432.571912,14952.160028,-71246.881314
4993.850741,4293.194464,-6217.729913,-77835.302597
4993.853261,2516.700203,-9030.512492,-82431.875585
4993.855781,-12139.377449,-15100.201217,-84576.942979
4993.858301,444.123565,-3256.906145,-81359.341888
4993.860821,4441.235652,13471.748144,-76303.111601
4993.863341,5477.523971,-1332.370696,-78601.398095
4993.865860,7994.224174,12583.501014,-72166.195912
4993.868380,1628.453072,17468.860231,-74158.044206
4993.870900,8586.388927,13767.830521,-75843.454302
4993.873420,8142.265362,-2960.823768,-80593.246390
4993.875940,4145.153275,-17320.819043,-85955.914876
4993.878460,-3108.864956,-11695.253884,-81818.999186
4993.880979,1628.453072,-2220.617826,-75843.454302
4993.883499,11251.130318,9622.677246,-75383.797003
4993.886019,18209.066173,18949.272115,-72166.195912
4993.888539,11547.212695,14656.077652,-75077.358804
4993.891059,4885.359217,-3552.988522,-81512.560987
4993.893579,1332.370696,-10658.965565,-77682.083497
4993.896113,5477.523971,-10658.965565,-81052.903688
4993.898647,3849.070898,-15248.242405,-80593.246390
4993.901181,-740.205942,-11695.253884,-78141.740796
4993.903715,2812.782580,2072.576638,-79061.055394
4993.906249,-4441.235652,16284.530724,-74004.825107
4993.908783,-592.164754,19541.436869,-72932.291410
4993.911317,-3256.906145,11991.336260,-78141.740796
4993.913851,444.123565,-6809.894666,-80746.465489
4993.916385,-148.041188,-12435.459826,-79673.931792
4993.918919,-7994.224174,-15396.283594,-80746.465489
4993.921453,-14656.077652,2072.576638,-74158.044206
4993.923987,-11399.171507,9326.594869,-81359.341888
4993.926521,-1184.329507,2368.659014,-80899.684589
4993.929055,3997.112087,17912.983796,-76149.892501
4993.931589,6661.853478,16728.654289,-74004.825107
4993.934123,1036.288319,8734.430116,-73238.729609
4993.936657,0.000000,-5329.482782,-78294.959896
4993.939191,-4885.359217,-17912.983796,-83351.190182
4993.941725,-7105.977043,-12879.583391,-82738.313784
4993.944258,-14508.036463,5477.523971,-79367.493593
4993.946792,-8882.471304,13027.624579,-76149.892501
4993.949326,9918.759623,17912.983796,-72779.072310
4993.951860,9622.677246,7698.141797,-75077.358804
4993.954394,-2072.576638,-2516.700203,-77835.302597
4993.956928,-6957.935855,5773.606348,-75996.673402
4993.959462,-5477.523971,-9622.677246,-82278.656485
4993.961996,-4145.153275,-12583.501014,-83504.409282
4993.964530,-6217.729913,-10510.924376,-80899.684589
4993.967064,12287.418637,3108.864956,-76303.111601
4993.969598,8586.388927,12287.418637,-74004.825107
4993.972132,10362.883188,20577.725188,-74770.920605
4993.974666,5329.482782,12731.542202,-73238.729609
4993.977200,-1924.535449,-6513.812290,-81512.560987
4993.979734,3701.029710,-15692.365970,-83504.409282
4993.982268,4589.276840,-10510.924376,-79827.150892
4993.984802,2960.823768,-2516.700203,-78601.398095
4993.987336,-5625.565159,-8734.430116,-79827.150892
4993.989870,1036.288319,5921.647536,-74464.482406
4993.992404,7402.059420,18505.148550,-76762.768900
4993.994938,6957.935855,18357.107362,-75690.235202
4993.997476,3997.112087,7550.100608,-75996.673402
4994.000021,4737.318029,-9770.718434,-82738.313784
4994.002565,5181.441594,-14063.912898,-79520.712692
4994.005110,7550.100608,-13175.665768,-78907.836294
4994.007654,1332.370696,1924.535449,-78294.959896
4994.010199,1628.453072,17172.777854,-75843.454302
4994.012743,5477.523971,18949.272115,-75230.577904
4994.015288,11547.212695,11843.295072,-76149.892501
4994.017832,16580.613101,17616.901420,-74770.920605
4994.020377,8438.347739,3552.988522,-74924.139704
4994.022921,-888.247130,-12139.377449,-79980.369991
4994.025466,-16728.654289,-15248.242405,-83197.971083
4994.028010,-10658.965565,-8586.388927,-81359.341888
4994.030555,-7254.018232,4293.194464,-76149.892501
4994.033100,1036.288319,18209.066173,-77069.207099
4994.035644,7550.100608,18801.230927,-73085.510509
4994.038189,-3849.070898,9474.636058,-73238.729609
4994.040733,-9030.512492,-6365.771101,-79214.274493
4994.043278,-15248.242405,-19097.313304,-83044.751983
4994.045822,-9030.512492,-11991.336260,-82431.875585
4994.048367,-1184.329507,3552.988522,-78141.740796
4994.050911,-1924.535449,-9326.594869,-79980.369991
4994.053456,-7402.059420,8734.430116,-73545.167808
4994.056000,-3849.070898,15544.324782,-75537.016103
4994.058545,444.123565,19393.395680,-73391.948708
4994.061089,592.164754,6513.812290,-80286.808190
4994.063634,-10214.842000,-6809.894666,-78907.836294
4994.066178,-13027.624579,-15988.448347,-82431.875585
4994.068723,-13027.624579,-9622.677246,-80133.589091
4994.071268,-5181.441594,-3701.029710,-77528.864398
4994.073812,-1184.329507,23982.672521,-71859.757712
4994.076357,-4885.359217,18061.024985,-75690.235202
4994.078901,4885.359217,13175.665768,-75996.673402
4994.081446,6069.688724,18653.189738,-74924.139704
4994.083990,10807.006753,-740.205942,-79827.150892
4994.086535,11695.253884,-9770.718434,-77528.864398
4994.089079,1332.370696,-24130.713709,-84730.162079
4994.091624,1036.288319,-740.205942,-77528.864398
4994.094168,-7105.977043,4293.194464,-79214.274493
4994.096713,13323.706956,16136.489536,-77375.645298
4994.099266,11843.295072,26351.331535,-71706.538613
4994.101820,13915.871710,444.123565,-79214.274493
4994.104373,9622.677246,-6661.853478,-75996.673402
4994.106926,-2812.782580,-16876.695478,-81972.218286
4994.109480,-2220.617826,-13915.871710,-80133.589091
4994.112033,1036.288319,6513.812290,-81359.341888
4994.114587,-5181.441594,-7105.977043,-83197.971083
4994.117140,5477.523971,7105.977043,-75843.454302
4994.119693,13175.665768,17764.942608,-72625.853210
4994.122247,21169.889941,13619.789333,-73698.386908
4994.124800,11103.089130,3997.112087,-73698.386908
4994.127354,4441.235652,18949.272115,-74311.263306
4994.129907,3997.112087,-5921.647536,-83351.190182
4994.132460,1480.411884,-12287.418637,-80440.027290
4994.135014,4441.235652,-13915.871710,-82891.532884
4994.137567,8438.347739,-6513.812290,-77222.426198
4994.140121,11251.130318,13323.706956,-73545.167808
4994.142674,-7402.059420,18653.189738,-73545.167808
4994.145227,-6957.935855,19689.478057,-74158.044206
4994.147781,-740.205942,17912.983796,-74311.263306
4994.150334,8438.347739,8882.471304,-77988.521696
4994.152887,296.082377,-4145.153275,-78448.178995
4994.155441,-7550.100608,-17024.736666,-81972.218286
4994.157994,-14063.912898,-8586.388927,-78601.398095
4994.160548,-15396.283594,-3256.906145,-79673.931792
4994.163101,-3256.906145,11103.089130,-77682.083497
4994.165654,2368.659014,20873.807564,-75843.454302
4994.168208,6957.935855,13175.665768,-74924.139704
4994.170761,-7105.977043,1924.535449,-75843.454302
4994.173315,-5625.565159,-13027.624579,-78907.836294
4994.175868,-5773.606348,-16876.695478,-81206.122788
4994.178421,-9030.512492,-15544.324782,-83197.971083
4994.180975,-17616.901420,-10510.924376,-82891.532884
4994.183528,-8586.388927,-3997.112087,-79827.150892
4994.186082,4145.153275,12435.459826,-73085.510509
4994.188635,4885.359217,18801.230927,-73851.606007
4994.191188,6661.853478,14508.036463,-72012.976812
4994.193742,-9030.512492,-2220.617826,-78907.836294
4994.196295,-4737.318029,-12879.583391,-84730.162079
4994.198849,-16580.613101,-12879.583391,-82585.094684
4994.201409,5181.441594,-9770.718434,-83504.409282
4994.203970,13619.789333,12139.377449,-74158.044206
4994.206531,11399.171507,15840.407159,-72932.291410
4994.209092,6069.688724,19689.478057,-69867.909418
4994.211653,-2516.700203,19689.478057,-76149.892501
4994.214214,14063.912898,9178.553681,-79673.931792
4994.216774,8586.388927,-888.247130,-78601.398095
4994.219335,3849.070898,-22206.178260,-85496.257577
4994.221896,-592.164754,-12879.583391,-76762.768900
4994.224457,-2368.659014,740.205942,-77682.083497
4994.227018,5477.523971,7254.018232,-78141.740796
4994.229579,13027.624579,21910.095883,-74004.825107
4994.232140,2812.782580,10510.924376,-79214.274493
4994.234700,12287.418637,1924.535449,-77835.302597
4994.237261,8290.306550,-12139.377449,-77988.521696
4994.239822,5033.400406,-9030.512492,-79980.369991
4994.242383,-1776.494261,-13471.748144,-80899.684589
4994.244944,-3701.029710,-9918.759623,-81665.780087
4994.247505,-592.164754,-4145.153275,-81665.780087
4994.250066,12139.377449,17024.736666,-73085.510509
4994.252626,16432.571912,19541.436869,-74004.825107
4994.255187,13175.665768,9474.636058,-74311.263306
4994.257748,5773.606348,444.123565,-75690.235202
4994.260309,-14508.036463,-17764.942608,-82278.656485
4994.262870,-14952.160028,-9622.677246,-79827.150892
4994.265431,-10807.006753,-6957.935855,-80899.684589
4994.267991,7550.100608,10955.047942,-77375.645298
4994.270552,-4589.276840,1628.453072,-79367.493593
4994.273113,-1628.453072,12731.542202,-74158.044206
4994.275674,-7994.224174,19985.560434,-70940.443115
4994.278235,2368.659014,8734.430116,-78907.836294
4994.280796,-1036.288319,444.123565,-76609.549800
4994.283357,-3552.988522,-15840.407159,-85189.819378
4994.285917,-6809.894666,-15988.448347,-82585.094684
4994.288478,-6069.688724,-592.164754,-75537.016103
4994.291039,3404.947333,7994.224174,-76303.111601
4994.293600,-3256.906145,18505.148550,-74004.825107
4994.296161,-7402.059420,16580.613101,-74924.139704
4994.298722,-10510.924376,1036.288319,-80593.246390
4994.301283,-11251.130318,-11399.171507,-77222.426198
4994.303849,4293.194464,-6957.935855,-79980.369991
4994.306415,-5477.523971,-13619.789333,-78141.740796
4994.308981,-14656.077652,-16136.489536,-81665.780087
4994.311547,-10214.842000,-2072.576638,-80440.027290
4994.314113,-1480.411884,14063.912898,-77222.426198
4994.316679,9770.718434,20577.725188,-76149.892501
4994.319245,22946.384202,17912.983796,-72625.853210
4994.321811,7994.224174,-6217.729913,-76456.330700
4994.324377,1924.535449,-11103.089130,-79980.369991
4994.326943,-15692.365970,-20133.601622,-82278.656485
4994.329510,-1332.370696,-5033.400406,-81512.560987
4994.332076,6069.688724,-11103.089130,-83657.628382
4994.334642,12731.542202,1628.453072,-78601.398095
4994.337208,4589.276840,20577.725188,-70480.785816
4994.339774,2368.659014,15100.201217,-73698.386908
4994.342340,11399.171507,11843.295072,-74158.044206
4994.344906,7550.100608,-5773.606348,-79980.369991
4994.347472,-444.123565,-15692.365970,-86109.133975
4994.350038,4441.235652,-10510.924376,-83044.751983
4994.352604,3108.864956,-1184.329507,-76456.330700
4994.355171,7994.224174,9030.512492,-75230.577904
4994.357737,13471.748144,18949.272115,-73238.729609
4994.360303,8438.347739,12731.542202,-75077.358804
4994.362869,5477.523971,592.164754,-78601.398095
4994.365435,11399.171507,13175.665768,-77528.864398
4994.368001,9326.594869,-4885.359217,-79673.931792
4994.370567,7105.977043,-21910.095883,-81359.341888
4994.373133,-2368.659014,-9326.594869,-79214.274493
4994.375699,-11695.253884,-4885.359217,-77988.521696
4994.378265,-12731.542202,18209.066173,-72932.291410
4994.380831,1628.453072,16876.695478,-76762.768900
4994.383398,6513.812290,17764.942608,-72472.634111
4994.385964,740.205942,-5477.523971,-81052.903688
4994.388530,-4441.235652,-15396.283594,-80133.589091
4994.391096,-18061.024985,-11251.130318,-77682.083497
4994.393662,-12583.501014,-7846.182985,-84270.504780
4994.396228,-6661.853478,-7402.059420,-79520.712692
4994.398794,-4589.276840,4293.194464,-80286.808190
4994.401360,-1628.453072,10658.965565,-75537.016103
4994.403926,2220.617826,19985.560434,-70787.224015
4994.406497,-592.164754,11103.089130,-75690.235202
4994.409068,-5477.523971,-6217.729913,-79367.493593
4994.411638,-13619.789333,-9918.759623,-81052.903688
4994.414209,-19245.354492,-12731.542202,-84883.381178
4994.416780,-5329.482782,-4737.318029,-79367.493593
4994.419350,-2072.576638,9622.677246,-76915.987999
4994.421921,6069.688724,21614.013506,-70940.443115
4994.424491,-8290.306550,11251.130318,-73851.606007
4994.427062,5033.400406,19689.478057,-76456.330700
4994.429633,296.082377,12287.418637,-75383.797003
4994.432203,10955.047942,-10066.800811,-83044.751983
4994.434774,7846.182985,-15692.365970,-81512.560987
4994.437345,3849.070898,-13471.748144,-81665.780087
4994.439915,-444.123565,3108.864956,-74311.263306
4994.442486,888.247130,9178.553681,-77835.302597
4994.445057,12287.418637,17912.983796,-75537.016103
4994.447627,15396.283594,16136.489536,-74004.825107
4994.450198,16136.489536,-6365.771101,-82125.437386
4994.452769,1628.453072,-12139.377449,-79214.274493
4994.455339,-1924.535449,-15544.324782,-80286.808190
4994.457910,888.247130,-14063.912898,-79367.493593
4994.460480,-1480.411884,-11399.171507,-81052.903688
4994.463051,4145.153275,-1332.370696,-80593.246390
4994.465622,12287.418637,12435.459826,-75383.797003
4994.468192,13915.871710,18061.024985,-73238.729609
4994.470763,19245.354492,10362.883188,-75077.358804
4994.473334,8586.388927,740.205942,-76609.549800
4994.475904,-1776.494261,-15248.242405,-83044.751983
4994.478475,-1184.329507,-17912.983796,-83504.409282
4994.481046,-740.205942,-592.164754,-80440.027290
4994.483616,19393.395680,8586.388927,-78754.617194
4994.486187,14804.118840,23094.425390,-68488.937521
4994.488758,-4737.318029,19541.436869,-73085.510509
4994.491328,-6217.729913,19689.478057,-73085.510509
4994.493899,-1628.453072,9326.594869,-76149.892501
4994.496469,1184.329507,-7402.059420,-82278.656485
4994.499040,-6069.688724,-17320.819043,-83657.628382
4994.501611,-7846.182985,-11399.171507,-81512.560987
4994.504181,-16136.489536,888.247130,-75077.358804
4994.506752,-6069.688724,11843.295072,-73238.729609
4994.509326,-148.041188,17764.942608,-75383.797003
4994.511901,5329.482782,12731.542202,-77528.864398
4994.514475,1776.494261,-888.247130,-79367.493593
4994.517049,-5921.647536,-12139.377449,-80899.684589
4994.519624,-1332.370696,-5921.647536,-78907.836294
4994.522198,-11695.253884,-16136.489536,-80440.027290
4994.524772,-13471.748144,-9326.594869,-80593.246390
4994.527347,-9030.512492,-296.082377,-79673.931792
4994.529921,-1036.288319,10807.006753,-77835.302597
4994.532495,7402.059420,18209.066173,-76762.768900
4994.535070,6365.771101,17468.860231,-70021.128517
4994.537644,-7698.141797,-5773.606348,-77835.302597
4994.540218,-10807.006753,-15692.365970,-82585.094684
4994.542793,-9030.512492,-13915.871710,-82278.656485
4994.545367,2220.617826,-21614.013506,-86109.133975
4994.547941,8734.430116,-12583.501014,-81818.999186
4994.550515,4885.359217,2664.741391,-81512.560987
4994.553090,-2960.823768,-6661.853478,-77835.302597
4994.555664,-2072.576638,8882.471304,-75537.016103
4994.558238,13619.789333,19393.395680,-76762.768900
4994.560813,16876.695478,16580.613101,-75537.016103
4994.563387,13915.871710,1332.370696,-79214.274493
4994.565961,-5329.482782,-6069.688724,-78754.617194
4994.568536,-592.164754,-18357.107362,-81206.122788
4994.571110,-2516.700203,-8438.347739,-79980.369991
4994.573684,4885.359217,3701.029710,-79520.712692
4994.576259,6365.771101,11991.336260,-75996.673402
4994.578833,17320.819043,19393.395680,-74004.825107
4994.581407,11399.171507,6809.894666,-77375.645298
4994.583982,17912.983796,17320.819043,-72932.291410
4994.586556,6217.729913,7994.224174,-74924.139704
4994.589130,1332.370696,-14211.954086,-83044.751983
4994.591705,4145.153275,-13175.665768,-80593.246390
4994.594279,2960.823768,-11251.130318,-81206.122788
4994.596853,11547.212695,148.041188,-78907.836294
4994.599428,2516.700203,16284.530724,-72932.291410
4994.602002,-2812.782580,18949.272115,-72319.415011
4994.604576,-9474.636058,15396.283594,-74770.920605
4994.607151,3404.947333,-9918.759623,-81818.999186
4994.609725,444.123565,-12879.583391,-80286.808190
4994.612301,1184.329507,-19985.560434,-86722.010374
4994.614877,-11399.171507,-17468.860231,-80133.589091
4994.617453,-19541.436869,-10510.924376,-81818.999186
4994.620029,-6957.935855,4145.153275,-76762.768900
4994.622605,4589.276840,19393.395680,-75537.016103
4994.625181,888.247130,19837.519246,-73545.167808
4994.627757,2516.700203,6957.935855,-76456.330700
4994.630333,296.082377,-7402.059420,-79827.150892
4994.632909,-12435.459826,-15840.407159,-81052.903688
4994.635486,-7846.182985,-10214.842000,-80133.589091
4994.638062,-15248.242405,5477.523971,-77222.426198
4994.640638,-15692.365970,9178.553681,-79980.369991
4994.643214,-1776.494261,19097.313304,-74311.263306
4994.645790,3108.864956,16284.530724,-74924.139704
4994.648366,1036.288319,15544.324782,-70634.004916
4994.650942,-2664.741391,8290.306550,-75843.454302
4994.653518,-7994.224174,-5033.400406,-80746.465489
4994.656094,-6365.771101,-15840.407159,-84117.285680
4994.658670,10658.965565,-14063.912898,-84423.723880
4994.661246,5773.606348,-444.123565,-76915.987999
4994.663822,6217.729913,14804.118840,-74617.701505
4994.666398,3404.947333,14508.036463,-71553.319513
4994.668974,8290.306550,13619.789333,-73391.948708
4994.671550,10658.965565,296.082377,-79980.369991
4994.674127,9622.677246,-14508.036463,-79520.712692
4994.676703,4885.359217,-6365.771101,-79980.369991
4994.679279,-5773.606348,-13619.789333,-79827.150892
4994.681855,-4441.235652,-14211.954086,-81818.999186
4994.684431,-1184.329507,4145.153275,-75537.016103
4994.687007,6661.853478,10807.006753,-78141.740796
4994.689583,8142.265362,20577.725188,-75537.016103
4994.692159,11103.089130,14952.160028,-74464.482406
4994.694735,11991.336260,-4885.359217,-79673.931792
4994.697311,5329.482782,-11399.171507,-79214.274493
4994.699887,-4293.194464,-12287.418637,-79980.369991
4994.702463,-1036.288319,-8734.430116,-81665.780087
4994.705039,4589.276840,12731.542202,-77988.521696
4994.707615,7846.182985,740.205942,-79980.369991
4994.710191,5181.441594,13471.748144,-73391.948708
4994.712768,-4885.359217,21614.013506,-73238.729609
4994.715345,-4441.235652,10955.047942,-75383.797003
4994.717922,-5181.441594,-6069.688724,-78294.959896
4994.720500,-1036.288319,-14359.995275,-83964.066581
4994.723077,-3997.112087,-17468.860231,-82431.875585
4994.725655,-7550.100608,-1332.370696,-76149.892501
4994.728232,-9918.759623,13323.706956,-75537.016103
4994.730810,-4737.318029,14804.118840,-74464.482406
4994.733387,-2220.617826,16728.654289,-74158.044206
4994.735965,5329.482782,740.205942,-77682.083497
4994.738542,8142.265362,11103.089130,-73851.606007
4994.741120,-296.082377,-3552.988522,-76609.549800
4994.743697,-7994.224174,-14804.118840,-81665.780087
4994.746275,-12583.501014,-12583.501014,-80133.589091
4994.748852,-18209.066173,-3701.029710,-81665.780087
4994.751430,-7254.018232,10955.047942,-78601.398095
4994.754007,4293.194464,16432.571912,-74158.044206
4994.756584,1184.329507,16728.654289,-73085.510509
4994.759162,4293.194464,1332.370696,-74617.701505
4994.761739,-12435.459826,-16580.613101,-80899.684589
4994.764317,-9178.553681,-15840.407159,-85036.600278
4994.766894,-8586.388927,-4441.235652,-80133.589091
4994.769472,9178.553681,-13619.789333,-83964.066581
4994.772049,6957.935855,-5625.565159,-79061.055394
4994.774627,8142.265362,14508.036463,-74311.263306
4994.777204,-4441.235652,14508.036463,-73545.167808
4994.779782,7550.100608,16136.489536,-73545.167808
4994.782359,11843.295072,2960.823768,-79827.150892
4994.784937,9770.718434,-12139.377449,-83657.628382
4994.787514,4737.318029,-15988.448347,-82125.437386
4994.790092,-5181.441594,-5477.523971,-80593.246390
4994.792669,-1480.411884,3108.864956,-75537.016103
4994.795246,1776.494261,20577.725188,-71859.757712
4994.797824,6513.812290,9918.759623,-77375.645298
4994.800401,10066.800811,16432.571912,-76762.768900
4994.802979,16728.654289,13619.789333,-74924.139704
4994.805556,17172.777854,-592.164754,-78448.178995
4994.808134,4145.153275,-11251.130318,-79827.150892
4994.810711,-2072.576638,-15544.324782,-79367.493593
4994.813289,3256.906145,-6069.688724,-78754.617194
4994.815866,592.164754,7402.059420,-78601.398095
4994.818445,22502.260637,14804.118840,-77069.207099
4994.821024,8882.471304,22354.219448,-72625.853210
4994.823602,-4145.153275,3849.070898,-76915.987999
4994.826181,-8586.388927,-5921.647536,-76762.768900
4994.828760,-16876.695478,-21762.054695,-83504.409282
4994.831339,4145.153275,-10807.006753,-79061.055394
4994.833917,-7254.018232,-17320.819043,-83810.847481
4994.836496,-5625.565159,-9030.512492,-81972.218286
4994.839075,-13027.624579,13323.706956,-73851.606007
4994.841654,148.041188,15396.283594,-76149.892501
4994.844232,1332.370696,20873.807564,-72319.415011
4994.846811,4441.235652,1036.288319,-79520.712692
4994.849390,592.164754,-12879.583391,-80440.027290
4994.851968,-3108.864956,-12879.583391,-80286.808190
4994.854547,-18949.272115,-9326.594869,-77682.083497
4994.857126,-8438.347739,5921.647536,-77528.864398
4994.859705,-5329.482782,-148.041188,-79367.493593
4994.862283,-5329.482782,4589.276840,-78601.398095
4994.864862,5329.482782,16432.571912,-75537.016103
4994.867441,2072.576638,16136.489536,-73238.729609
4994.870020,-1036.288319,3701.029710,-73545.167808
4994.872598,-2812.782580,-6217.729913,-78141.740796
4994.875177,-11251.130318,-18653.189738,-86109.133975
4994.877756,444.123565,-8142.265362,-82431.875585
4994.880334,13175.665768,-444.123565,-81818.999186
4994.882913,14656.077652,15988.448347,-73545.167808
4994.885492,9918.759623,25759.166782,-67263.184724
4994.888071,2516.700203,4441.235652,-75690.235202
4994.890649,3256.906145,16876.695478,-77835.302597
4994.893228,16284.530724,6661.853478,-78294.959896
4994.895807,7550.100608,-15248.242405,-83657.628382
4994.898386,-1480.411884,-14211.954086,-79980.369991
4994.900964,-8734.430116,-7105.977043,-76149.892501
4994.903543,1036.288319,1776.494261,-77988.521696
4994.906122,6661.853478,18505.148550,-75230.577904
4994.908701,8290.306550,20281.642811,-74770.920605
4994.911279,12287.418637,8734.430116,-78294.959896
4994.913858,9622.677246,-4885.359217,-78754.617194
4994.916437,3404.947333,-15692.365970,-83044.751983
4994.919015,-3404.947333,-13175.665768,-79980.369991
4994.921559,444.123565,-15988.448347,-81359.341888
4994.924103,-2072.576638,-8734.430116,-82585.094684
4994.926647,12583.501014,5033.400406,-78754.617194
4994.929190,13027.624579,19837.519246,-73545.167808
4994.931734,-4145.153275,17616.901420,-72625.853210
4994.934278,-2516.700203,8290.306550,-74311.263306
4994.936822,-15988.448347,-8586.388927,-78141.740796
4994.939365,-592.164754,-19541.436869,-85649.476676
4994.941909,-7254.018232,-11399.171507,-80746.465489
4994.944453,-5921.647536,148.041188,-79367.493593
4994.946997,-8734.430116,15544.324782,-72319.415011
4994.949540,-4737.318029,15840.407159,-75383.797003
4994.952084,2220.617826,19097.313304,-74158.044206
4994.954628,4885.359217,14063.912898,-76149.892501
4994.957172,5033.400406,8290.306550,-75996.673402
4994.959715,-2516.700203,-3701.029710,-78448.178995
4994.962259,-7846.182985,-16136.489536,-81052.903688
4994.964803,-12879.583391,-9770.718434,-79980.369991
4994.967347,-10066.800811,-10510.924376,-83504.409282
4994.969890,-9030.512492,-11251.130318,-81359.341888
4994.972434,-2664.741391,5181.441594,-77835.302597
4994.974978,1036.288319,15692.365970,-74158.044206
4994.977522,1480.411884,17912.983796,-70021.128517
4994.980065,1332.370696,8290.306550,-77682.083497
4994.982609,-2220.617826,-5625.565159,-81052.903688
4994.985153,2812.782580,-15544.324782,-83504.409282
4994.987697,7254.018232,-17468.860231,-84576.942979
4994.990240,3849.070898,-15248.242405,-81818.999186
4994.992784,-3849.070898,-6513.812290,-75996.673402
4994.995328,-3701.029710,3256.906145,-76609.549800
4994.997872,9474.636058,18357.107362,-74924.139704
4995.000415,16432.571912,20133.601622,-75383.797003
4995.002963,11103.089130,2368.659014,-81972.218286
4995.005514,888.247130,-8290.306550,-78601.398095
4995.008065,-4885.359217,-11991.336260,-79367.493593
4995.010616,-2960.823768,-13175.665768,-79673.931792
4995.013167,5477.523971,4145.153275,-76149.892501
4995.015718,7550.100608,14656.077652,-78448.178995
4995.018269,7105.977043,6365.771101,-80746.465489
4995.020820,20577.725188,16876.695478,-73545.167808
4995.023371,9622.677246,21021.848753,-72012.976812
4995.025922,9622.677246,-1332.370696,-78601.398095
4995.028473,9326.594869,-6957.935855,-76762.768900
4995.031024,3256.906145,-15544.324782,-85343.038477
4995.033575,4737.318029,-13471.748144,-82278.656485
4995.036126,3997.112087,6809.894666,-77988.521696
4995.038677,-7550.100608,11103.089130,-76149.892501
4995.041227,-8438.347739,24426.796086,-69408.252119
4995.043778,-148.041188,6069.688724,-77375.645298
4995.046329,1184.329507,-3997.112087,-78601.398095
4995.048880,148.041188,4885.359217,-75843.454302
4995.051431,-6957.935855,-10807.006753,-81052.903688
4995.053982,-15988.448347,-13027.624579,-81818.999186
4995.056533,-5773.606348,-12583.501014,-81665.780087
4995.059084,4145.153275,6957.935855,-75843.454302
4995.061635,4885.359217,13027.624579,-77835.302597
4995.064186,-2664.741391,15396.283594,-72625.853210
4995.066737,3552.988522,9474.636058,-73851.606007
4995.069288,-9474.636058,-7254.018232,-78141.740796
4995.071839,-14359.995275,-13175.665768,-81512.560987
4995.074390,-8438.347739,-7105.977043,-82125.437386
4995.076941,-8142.265362,-6809.894666,-82891.532884
4995.079492,-7994.224174,-8290.306550,-79214.274493
4995.082043,-5477.523971,1480.411884,-74924.139704
4995.084594,-2368.659014,15692.365970,-71553.319513
4995.087145,-2664.741391,18949.272115,-73391.948708
4995.089696,8734.430116,11251.130318,-79673.931792
4995.092246,13619.789333,-3997.112087,-82891.532884
4995.094797,6661.853478,-19837.519246,-83351.190182
4995.097348,2072.576638,-8882.471304,-79673.931792
4995.099899,-7846.182985,-5625.565159,-76149.892501
4995.102450,11991.336260,12583.501014,-72472.634111
4995.105008,11695.253884,19393.395680,-76762.768900
4995.107565,22206.178260,15248.242405,-78601.398095
4995.110122,9622.677246,20873.807564,-73391.948708
4995.112680,2220.617826,8290.306550,-76762.768900
4995.115237,1036.288319,-7402.059420,-76149.892501
4995.117794,-592.164754,-17912.983796,-81206.122788
4995.120352,592.164754,-14804.118840,-82585.094684
4995.122909,7698.141797,5773.606348,-78907.836294
4995.125467,14804.118840,11251.130318,-78754.617194
4995.128024,19097.313304,24130.713709,-71553.319513
4995.130581,888.247130,13915.871710,-74004.825107
4995.133139,2664.741391,-7846.182985,-78141.740796
4995.135696,4737.318029,-10214.842000,-80899.684589
4995.138253,5773.606348,-16876.695478,-85343.038477
4995.140811,2664.741391,-14211.954086,-81206.122788
4995.143368,-17320.819043,-6661.853478,-76762.768900
4995.145925,-17468.860231,0.000000,-78907.836294
4995.148483,-6809.894666,11991.336260,-73238.729609
4995.151040,8586.388927,16432.571912,-76456.330700
4995.153598,8142.265362,13175.665768,-75690.235202
4995.156155,-3997.112087,-2368.659014,-76149.892501
4995.158712,-13767.830521,-10066.800811,-80899.684589
4995.161270,-17468.860231,-16580.613101,-81206.122788
4995.163827,-7254.018232,-4145.153275,-80133.589091
4995.166384,2220.617826,11843.295072,-79980.369991
4995.168942,6809.894666,-592.164754,-78601.398095
4995.171499,2072.576638,17912.983796,-70787.224015
4995.174056,-7698.141797,16136.489536,-73698.386908
4995.176614,-5625.565159,8586.388927,-74617.701505
4995.179171,-5773.606348,296.082377,-78601.398095
4995.181729,-13619.789333,-18209.066173,-87488.105872
4995.184286,-3552.988522,-9178.553681,-80899.684589
4995.186843,-14656.077652,-5921.647536,-79520.712692
4995.189401,-1332.370696,7846.182985,-74924.139704
4995.191958,-1036.288319,19837.519246,-71706.538613
4995.194515,7994.224174,12583.501014,-76609.549800
4995.197073,16284.530724,8290.306550,-77222.426198
4995.199630,7846.182985,-17320.819043,-87028.448573
4995.202187,6513.812290,-740.205942,-78754.617194
4995.204745,-7550.100608,-18653.189738,-81206.122788
4995.207306,1776.494261,-13471.748144,-77835.302597
4995.209868,1776.494261,-1480.411884,-78907.836294
4995.212430,20281.642811,10214.842000,-77069.207099
4995.214991,16728.654289,19245.354492,-75537.016103
4995.217553,3404.947333,11399.171507,-76915.987999
4995.220115,1480.411884,5181.441594,-74617.701505
4995.222676,-2072.576638,-11251.130318,-79214.274493
4995.225238,740.205942,-13323.706956,-80593.246390
4995.227800,6069.688724,-4145.153275,-79214.274493
4995.230361,7254.018232,-14063.912898,-83504.409282
4995.232923,4145.153275,-148.041188,-78448.178995
4995.235485,1480.411884,10955.047942,-74770.920605
4995.238046,13323.706956,19097.313304,-71706.538613
4995.240608,9178.553681,16728.654289,-74617.701505
4995.243169,14656.077652,-4145.153275,-81972.218286
4995.245731,-592.164754,-8882.471304,-80593.246390
4995.248293,-18209.066173,-18505.148550,-83351.190182
4995.250854,-16136.489536,-2220.617826,-74924.139704
4995.253416,-13175.665768,6365.771101,-75996.673402
4995.255978,3997.112087,13767.830521,-78294.959896
4995.258539,7846.182985,19837.519246,-75537.016103
4995.261101,-4589.276840,3108.864956,-75996.673402
4995.263663,-8438.347739,19245.354492,-69867.909418
4995.266224,-4737.318029,-1776.494261,-76762.768900
4995.268786,-3849.070898,-10807.006753,-81206.122788
4995.271348,-1036.288319,-15692.365970,-85649.476676
4995.273909,-3849.070898,-6069.688724,-80286.808190
4995.276471,-5477.523971,6661.853478,-76149.892501
4995.279033,-6069.688724,16728.654289,-72779.072310
4995.281594,1628.453072,17616.901420,-71246.881314
4995.284156,-1924.535449,6217.729913,-75383.797003
4995.286717,-5181.441594,-12435.459826,-84576.942979
4995.289279,-1924.535449,-14359.995275,-82585.094684
4995.291841,-9918.759623,-14656.077652,-81052.903688
4995.294402,-10955.047942,-15100.201217,-79520.712692
4995.296964,-12139.377449,-7402.059420,-76762.768900
4995.299526,10658.965565,8882.471304,-77988.521696
4995.302087,17912.983796,19837.519246,-77069.207099
4995.304649,17764.942608,13915.871710,-78601.398095
4995.307211,3552.988522,12139.377449,-73698.386908
4995.309776,-10510.924376,-15988.448347,-81818.999186
4995.312342,2072.576638,-14359.995275,-78294.959896
4995.314907,3108.864956,-10214.842000,-80593.246390
4995.317473,14063.912898,3256.906145,-80440.027290
4995.320039,6365.771101,15396.283594,-78294.959896
4995.322604,3701.029710,8438.347739,-77682.083497
4995.325170,7402.059420,19985.560434,-72166.195912
4995.327735,8882.471304,16580.613101,-74770.920605
4995.330301,18505.148550,5625.565159,-75690.235202
4995.332866,9918.759623,-14359.995275,-83044.751983
4995.335432,7105.977043,-20133.601622,-85496.257577
4995.337998,-444.123565,-4737.318029,-75996.673402
4995.340563,-2664.741391,2368.659014,-77222.426198
4995.343129,13767.830521,21021.848753,-72625.853210
4995.345694,14063.912898,20429.683999,-74158.044206
4995.348260,16136.489536,6809.894666,-79827.150892
4995.350825,-6661.853478,-7254.018232,-80746.465489
4995.353391,-7994.224174,-1776.494261,-74770.920605
4995.355957,-21762.054695,-10510.924376,-75230.577904
4995.358522,-1036.288319,-21021.848753,-86875.229473
4995.361088,1332.370696,-1776.494261,-78601.398095
4995.363653,1628.453072,2812.782580,-83197.971083
4995.366219,-5773.606348,21021.848753,-71706.538613
4995.368784,-6069.688724,18061.024985,-72166.195912
4995.371350,2072.576638,4145.153275,-75383.797003
4995.373916,2960.823768,-6365.771101,-78907.836294
4995.376481,-8142.265362,-15840.407159,-84576.942979
4995.379047,-6513.812290,-12139.377449,-82738.313784
4995.381612,-10066.800811,-16136.489536,-82125.437386
4995.384178,-15396.283594,-4589.276840,-77835.302597
4995.386743,-11399.171507,-10955.047942,-80746.465489
4995.389309,-5625.565159,-2220.617826,-77835.302597
4995.391875,-2072.576638,10807.006753,-79367.493593
4995.394440,-1332.370696,13767.830521,-77835.302597
4995.397006,-444.123565,18357.107362,-70634.004916
4995.399571,-1924.535449,-296.082377,-77375.645298
4995.402137,4589.276840,-9918.759623,-78907.836294
4995.404703,8882.471304,-13471.748144,-83657.628382
4995.407268,6809.894666,-13915.871710,-84730.162079
4995.409834,3552.988522,14656.077652,-73851.606007
4995.412402,-5921.647536,13323.706956,-75690.235202
4995.414971,10214.842000,19245.354492,-71093.662214
4995.417540,21169.889941,25018.960840,-73851.606007
4995.420109,15544.324782,8734.430116,-78141.740796
4995.422678,1332.370696,0.000000,-78601.398095
4995.425247,-5477.523971,-15396.283594,-83504.409282
4995.427815,-4441.235652,-16876.695478,-80593.246390
4995.430384,3849.070898,-3404.947333,-76303.111601
4995.432953,7698.141797,10214.842000,-77835.302597
4995.435522,20133.601622,16432.571912,-74924.139704
4995.438091,16136.489536,15544.324782,-77375.645298
4995.440660,5329.482782,1036.288319,-77682.083497
4995.443228,444.123565,-8586.388927,-75383.797003
4995.445797,2960.823768,-14952.160028,-82125.437386
4995.448366,1776.494261,-19689.478057,-87334.886772
4995.450935,6365.771101,-3552.988522,-79214.274493
4995.453504,-13027.624579,-8734.430116,-84576.942979
4995.456073,-12287.418637,12435.459826,-70327.566716
4995.458641,-13323.706956,15988.448347,-72472.634111
4995.461210,11547.212695,8882.471304,-76762.768900
4995.463779,5625.565159,11399.171507,-75230.577904
4995.466348,3849.070898,-13471.748144,-84117.285680
4995.468917,-19985.560434,-7254.018232,-76456.330700
4995.471486,-16432.571912,-14508.036463,-83504.409282
4995.474054,-1628.453072,1628.453072,-76762.768900
4995.476623,6513.812290,16284.530724,-74311.263306
4995.479192,1776.494261,4293.194464,-77988.521696
4995.481761,-2220.617826,21169.889941,-71706.538613
4995.484330,-6809.894666,11251.130318,-76149.892501
4995.486899,-6661.853478,5329.482782,-76609.549800
4995.489467,-8882.471304,-9326.594869,-77988.521696
4995.492036,-9326.594869,-14952.160028,-83657.628382
4995.494605,-9030.512492,-7698.141797,-79980.369991
4995.497174,-4589.276840,888.247130,-78601.398095
4995.499743,-2220.617826,16876.695478,-74004.825107
4995.502312,-2516.700203,17616.901420,-70787.224015
4995.504880,11547.212695,13027.624579,-74770.920605
4995.507449,16432.571912,-3701.029710,-82278.656485
4995.510018,7698.141797,592.164754,-81818.999186
4995.512587,2516.700203,-7105.977043,-78448.178995
4995.515157,-11843.295072,-20133.601622,-82891.532884
4995.517728,-1480.411884,-7698.141797,-78141.740796
4995.520298,13619.789333,5033.400406,-77222.426198
4995.522869,21317.931130,14211.954086,-77528.864398
4995.525439,9030.512492,19245.354492,-74924.139704
4995.528010,5921.647536,9918.759623,-78294.959896
4995.530580,2220.617826,-4441.235652,-78141.740796
4995.533151,2220.617826,-14952.160028,-81052.903688
4995.535721,9622.677246,-12879.583391,-78448.178995
4995.538292,3701.029710,-2664.741391,-81512.560987
4995.540862,-2664.741391,-13915.871710,-84730.162079
4995.543433,888.247130,7550.100608,-74924.139704
4995.546003,9326.594869,17468.860231,-75690.235202
4995.548574,14211.954086,19837.519246,-71093.662214
4995.551144,17172.777854,8586.388927,-76149.892501
4995.553715,3256.906145,-8734.430116,-83504.409282
4995.556285,-12879.583391,-20725.766376,-82585.094684
4995.558856,-19837.519246,-6217.729913,-77835.302597
4995.561426,-13323.706956,-2960.823768,-77835.302597
4995.563997,8438.347739,13471.748144,-72932.291410
4995.566567,6365.771101,17764.942608,-76609.549800
4995.569137,2072.576638,10658.965565,-74311.263306
4995.571708,-9030.512492,3552.988522,-74770.920605
4995.574278,-1628.453072,6217.729913,-77835.302597
4995.576849,148.041188,-3849.070898,-77988.521696
4995.579419,0.000000,-14211.954086,-80746.465489
4995.581990,-4293.194464,-12435.459826,-83964.066581
4995.584560,-13323.706956,444.123565,-76609.549800
4995.587131,-5921.647536,11103.089130,-74311.263306
4995.589701,-4589.276840,19837.519246,-75383.797003
4995.592272,-2368.659014,11695.253884,-74158.044206
4995.594842,3997.112087,592.164754,-78601.398095
4995.597413,-11547.212695,-17024.736666,-85649.476676
4995.599983,-7254.018232,-14508.036463,-79673.931792
4995.602554,-17616.901420,-13619.789333,-77988.521696
4995.605124,-2368.659014,-14952.160028,-82891.532884
4995.607695,10362.883188,6069.688724,-75230.577904
4995.610265,16580.613101,8290.306550,-77988.521696
4995.612836,8882.471304,24722.878463,-73545.167808
4995.615406,740.205942,10214.842000,-77222.426198
4995.617978,2072.576638,-740.205942,-77222.426198
4995.620550,8882.471304,-12435.459826,-82431.875585
4995.623122,9178.553681,-13767.830521,-79061.055394
4995.625694,1332.370696,-4293.194464,-81206.122788
4995.628266,1480.411884,6513.812290,-77835.302597
4995.630838,2368.659014,20133.601622,-72472.634111
4995.633410,5625.565159,13471.748144,-76915.987999
4995.635982,22058.137072,17468.860231,-73085.510509
4995.638554,13175.665768,13175.665768,-74770.920605
4995.641127,18209.066173,-9622.677246,-83044.751983
4995.643699,2368.659014,-9622.677246,-76456.330700
4995.646271,-3997.112087,-15840.407159,-83351.190182
4995.648843,1184.329507,-3108.864956,-78601.398095
4995.651415,11991.336260,8142.265362,-81206.122788
4995.653987,11547.212695,19541.436869,-75690.235202
4995.656559,-2516.700203,19837.519246,-72625.853210
4995.659131,-10658.965565,3701.029710,-74617.701505
4995.661703,-15692.365970,-15692.365970,-79520.712692
4995.664275,0.000000,-19541.436869,-75537.016103
4995.666847,-4145.153275,-20577.725188,-86722.010374
4995.669419,-11399.171507,-13767.830521,-81665.780087
4995.671991,-17320.819043,296.082377,-78294.959896
4995.674563,-5033.400406,10807.006753,-77375.645298
4995.677135,2664.741391,21614.013506,-71093.662214
4995.679707,8882.471304,11547.212695,-76456.330700
4995.682279,2220.617826,592.164754,-77682.083497
4995.684851,-12435.459826,-9622.677246,-77988.521696
4995.687423,-17764.942608,-15396.283594,-83044.751983
4995.689995,-17172.777854,-3404.947333,-79367.493593
4995.692567,-6217.729913,4737.318029,-77528.864398
4995.695139,6365.771101,18061.024985,-75383.797003
4995.697711,-7254.018232,5033.400406,-78754.617194
4995.700283,-740.205942,17172.777854,-72472.634111
4995.702855,-3701.029710,15840.407159,-72319.415011
4995.705427,8734.430116,-1480.411884,-80593.246390
4995.707999,16432.571912,-6217.729913,-79520.712692
4995.710571,8438.347739,-20725.766376,-85955.914876
4995.713144,1776.494261,-3701.029710,-79214.274493
4995.715716,-9770.718434,3108.864956,-76915.987999
4995.718288,5329.482782,18061.024985,-74311.263306
4995.720861,11695.253884,20577.725188,-73698.386908
4995.723434,18653.189738,5033.400406,-77222.426198
4995.726008,6513.812290,-7846.182985,-81665.780087
4995.728581,1184.329507,444.123565,-80593.246390
4995.731154,-2368.659014,-10955.047942,-79214.274493
4995.733728,2368.659014,-11251.130318,-81972.218286
4995.736301,13323.706956,-7994.224174,-80440.027290
4995.738874,5181.441594,8438.347739,-75690.235202
4995.741448,10807.006753,14063.912898,-78754.617194
4995.744021,7846.182985,17616.901420,-72472.634111
4995.746594,11103.089130,7402.059420,-75690.235202
4995.749168,8290.306550,-10510.924376,-79827.150892
4995.751741,10807.006753,-18949.272115,-83504.409282
4995.754315,-740.205942,-11843.295072,-82125.437386
4995.756888,-12287.418637,2664.741391,-77375.645298
4995.759461,-21614.013506,2220.617826,-73545.167808
4995.762035,-7550.100608,4885.359217,-78907.836294
4995.764608,6365.771101,22798.343014,-71093.662214
4995.767181,4737.318029,14359.995275,-77069.207099
4995.769755,-4145.153275,4145.153275,-75690.235202
4995.772328,-15544.324782,-8586.388927,-79061.055394
4995.774901,-8290.306550,-15248.242405,-82125.437386
4995.777475,-2368.659014,-6365.771101,-79520.712692
4995.780048,1924.535449,2812.782580,-79061.055394
4995.782621,1480.411884,13323.706956,-75230.577904
4995.785195,-4589.276840,15544.324782,-71859.757712
4995.787768,-6661.853478,8290.306550,-75996.673402
4995.790341,-8586.388927,15248.242405,-76149.892501
4995.792915,1480.411884,7402.059420,-76915.987999
4995.795488,-2072.576638,-9622.677246,-79520.712692
4995.798061,-8586.388927,-14804.118840,-83197.971083
4995.800635,-10955.047942,-11103.089130,-81512.560987
4995.803208,-11843.295072,-19689.478057,-82431.875585
4995.805782,11695.253884,-5181.441594,-78907.836294
4995.808355,14656.077652,10214.842000,-79367.493593
4995.810928,18209.066173,19689.478057,-75690.235202
4995.813502,5181.441594,21021.848753,-71093.662214
4995.816075,740.205942,-444.123565,-80440.027290
4995.818648,2960.823768,-11547.212695,-78754.617194
4995.821222,888.247130,-15396.283594,-82431.875585
4995.823796,9178.553681,-21021.848753,-83044.751983
4995.826371,-5033.400406,-14656.077652,-81512.560987
4995.828945,-3701.029710,-1036.288319,-79061.055394
4995.831520,4145.153275,9474.636058,-76762.768900
4995.834094,23686.590144,21317.931130,-72932.291410
4995.836669,18653.189738,13915.871710,-75843.454302
4995.839243,14952.160028,-3701.029710,-81512.560987
4995.841818,3256.906145,-12435.459826,-77988.521696
4995.844392,-10362.883188,-17172.777854,-81665.780087
4995.846967,6217.729913,-4589.276840,-79673.931792
4995.849541,2960.823768,5181.441594,-78448.178995
4995.852116,20577.725188,22502.260637,-76915.987999
4995.854690,-10362.883188,10362.883188,-77069.207099
4995.857265,-9918.759623,23538.548956,-72012.976812
4995.859839,-7550.100608,12435.459826,-71859.757712
4995.862414,9030.512492,-3108.864956,-79980.369991
4995.864988,-2960.823768,-17468.860231,-84423.723880
4995.867563,-7550.100608,-14804.118840,-81972.218286
4995.870137,-19837.519246,1776.494261,-77375.645298
4995.872712,-15248.242405,10214.842000,-77835.302597
4995.875286,444.123565,18209.066173,-72472.634111
4995.877861,9474.636058,13175.665768,-77375.645298
4995.880435,-592.164754,1924.535449,-77375.645298
4995.883010,-11251.130318,-7550.100608,-77222.426198
4995.885584,-14063.912898,-5033.400406,-79061.055394
4995.888159,-13767.830521,-13323.706956,-81206.122788
4995.890733,-11695.253884,-7994.224174,-81512.560987
4995.893308,-9474.636058,-5921.647536,-81972.218286
4995.895882,0.000000,10955.047942,-75230.577904
4995.898457,-1628.453072,20429.683999,-73238.729609
4995.901031,-7105.977043,12139.377449,-71553.319513
4995.903606,14211.954086,1480.411884,-76456.330700
4995.906180,8882.471304,-12287.418637,-83197.971083
4995.908755,11547.212695,-18061.024985,-84117.285680
4995.911329,-1776.494261,2072.576638,-77222.426198
4995.913904,-10066.800811,444.123565,-79827.150892
4995.916478,740.205942,1332.370696,-74311.263306
4995.919053,8586.388927,11991.336260,-75077.358804
4995.921627,16580.613101,13471.748144,-78448.178995
4995.924202,2072.576638,13767.830521,-73085.510509
4995.926776,3849.070898,1184.329507,-80440.027290
4995.929351,-1628.453072,-8290.306550,-80746.465489
4995.931926,12731.542202,-12731.542202,-80440.027290
4995.934500,8438.347739,-5477.523971,-81206.122788
4995.937075,10066.800811,8586.388927,-77988.521696
4995.939650,3849.070898,13915.871710,-74770.920605
4995.942225,6957.935855,16580.613101,-73851.606007
4995.944799,7254.018232,7105.977043,-74924.139704
4995.947374,13915.871710,12731.542202,-75230.577904
4995.949949,3997.112087,-592.164754,-79673.931792
4995.952524,-17320.819043,-14211.954086,-83351.190182
4995.955098,-21762.054695,-14211.954086,-80133.589091
4995.957673,-15840.407159,-7254.018232,-77988.521696
4995.960248,7846.182985,9770.718434,-77835.302597
4995.962823,9178.553681,17764.942608,-73698.386908
4995.965397,8142.265362,15396.283594,-74924.139704
4995.967972,-9918.759623,9622.677246,-74158.044206
4995.970547,-11547.212695,-14211.954086,-82125.437386
4995.973122,-5033.400406,-15692.365970,-82278.656485
4995.975696,2516.700203,-10362.883188,-81972.218286
4995.978271,-6661.853478,-13175.665768,-81206.122788
4995.980846,-12583.501014,-888.247130,-76609.549800
4995.983421,-15248.242405,9474.636058,-75996.673402
4995.985995,-5181.441594,17616.901420,-74311.263306
4995.988570,-3552.988522,17024.736666,-75537.016103
4995.991145,4145.153275,-1924.535449,-80593.246390
4995.993719,-8734.430116,-13471.748144,-79520.712692
4995.996294,-6957.935855,-12287.418637,-83351.190182
4995.998869,-17912.983796,-10658.965565,-78907.836294
4996.001444,8734.430116,9622.677246,-75690.235202
4996.004018,18505.148550,17912.983796,-76915.987999
4996.006593,26499.372724,16876.695478,-76149.892501
4996.009168,5033.400406,24574.837274,-70327.566716
4996.011743,-3404.947333,10955.047942,-77375.645298
4996.014317,11991.336260,1036.288319,-76149.892501
4996.016892,6957.935855,-20133.601622,-83504.409282
4996.019467,-1036.288319,-17024.736666,-82431.875585
4996.022042,-1036.288319,-4145.153275,-79367.493593
4996.024616,148.041188,9622.677246,-77988.521696
4996.027191,-2368.659014,22798.343014,-71859.757712
4996.029763,21910.095883,13323.706956,-74924.139704
4996.032338,11547.212695,2368.659014,-77835.302597
4996.034912,6513.812290,-14656.077652,-82278.656485
4996.037486,-2516.700203,-12287.418637,-79673.931792
4996.040060,-2812.782580,-15544.324782,-83351.190182
4996.042634,4293.194464,-10658.965565,-79827.150892
4996.045208,10955.047942,-2220.617826,-78141.740796
4996.047782,2812.782580,9030.512492,-79061.055394
4996.050356,-5477.523971,16876.695478,-73545.167808
4996.052930,-13323.706956,19393.395680,-72166.195912
4996.055504,-3552.988522,-296.082377,-78907.836294
4996.058078,2368.659014,-11103.089130,-78907.836294
4996.060652,-8586.388927,-21317.931130,-85496.257577
4996.063226,-8438.347739,-5625.565159,-78601.398095
4996.065800,-17616.901420,7698.141797,-75690.235202
4996.068374,-1628.453072,20873.807564,-75077.358804
4996.070948,4737.318029,15396.283594,-75537.016103
4996.073522,6217.729913,19393.395680,-74158.044206
4996.076096,-4441.235652,12435.459826,-74158.044206
4996.078670,-6365.771101,-1628.453072,-76915.987999
4996.081244,-8586.388927,-15988.448347,-80286.808190
4996.083819,-15396.283594,-10214.842000,-80899.684589
4996.086393,-2072.576638,-1924.535449,-79980.369991
4996.088967,-1184.329507,6809.894666,-77375.645298
4996.091541,-4885.359217,14656.077652,-77375.645298
4996.094115,-1776.494261,19393.395680,-72012.976812
4996.096689,0.000000,3404.947333,-77375.645298
4996.099263,21021.848753,-14211.954086,-79367.493593
4996.101837,12435.459826,-14508.036463,-75690.235202
4996.104411,2664.741391,-11399.171507,-84270.504780
4996.106985,-12583.501014,-21910.095883,-83504.409282
4996.109559,-6513.812290,-1332.370696,-77682.083497
4996.112133,4441.235652,11399.171507,-78448.178995
4996.114707,23538.548956,20429.683999,-71400.100414
4996.117281,16580.613101,14804.118840,-74311.263306
4996.119855,-740.205942,-1924.535449,-78754.617194
4996.122429,-592.164754,-10955.047942,-79520.712692
4996.125003,-888.247130,-15248.242405,-85649.476676
4996.127577,11399.171507,-296.082377,-78601.398095
4996.130151,10214.842000,8142.265362,-77222.426198
4996.132725,0.000000,-4293.194464,-79520.712692
4996.135298,-444.123565,9770.718434,-75383.797003
4996.137872,14804.118840,17024.736666,-73085.510509
4996.140445,15840.407159,11251.130318,-77069.207099
4996.143019,25167.002028,6069.688724,-78141.740796
4996.145592,-13619.789333,-7550.100608,-79827.150892
4996.148166,-26055.249158,-18209.066173,-84270.504780
4996.150739,-20577.725188,-7105.977043,-77528.864398
4996.153313,-2368.659014,-444.123565,-81818.999186
4996.155886,16136.489536,17764.942608,-72472.634111
4996.158460,5921.647536,23094.425390,-73238.729609
4996.161033,-6069.688724,5625.565159,-76149.892501
4996.163607,-12139.377449,-8882.471304,-78448.178995
4996.166180,5773.606348,-444.123565,-78907.836294
4996.168754,-2368.659014,-15100.201217,-85343.038477
4996.171327,-5329.482782,-17764.942608,-79827.150892
4996.173901,-17764.942608,-1184.329507,-75996.673402
4996.176474,-14211.954086,10807.006753,-75230.577904
4996.179048,-1036.288319,16136.489536,-73238.729609
4996.181621,9030.512492,19097.313304,-76762.768900
4996.184195,2516.700203,1924.535449,-78601.398095
4996.186768,-6217.729913,-12287.418637,-81052.903688
4996.189342,-7550.100608,-12287.418637,-81818.999186
4996.191915,-13619.789333,-13619.789333,-78907.836294
4996.194489,8290.306550,6957.935855,-76762.768900
4996.197062,10066.800811,-6661.853478,-82891.532884
4996.199636,14508.036463,13323.706956,-79214.274493
4996.202209,444.123565,20133.601622,-72472.634111
4996.204783,7550.100608,12731.542202,-76915.987999
4996.207356,10807.006753,5921.647536,-75383.797003
4996.209930,12287.418637,-11695.253884,-81206.122788
4996.212503,7550.100608,-21910.095883,-85649.476676
4996.215077,-5329.482782,-3849.070898,-77682.083497
4996.217651,-7846.182985,6217.729913,-76609.549800
4996.220224,7994.224174,-2368.659014,-78294.959896
4996.222798,15692.365970,18209.066173,-73238.729609
4996.225372,12435.459826,12287.418637,-80440.027290
4996.227946,12435.459826,12287.418637,-73085.510509
4996.230519,2812.782580,2812.782580,-76303.111601
4996.233093,9770.718434,8438.347739,-77069.207099
4996.235667,15248.242405,-2664.741391,-77988.521696
4996.238241,2368.659014,-15840.407159,-82738.313784
4996.240814,-18949.272115,-14952.160028,-85036.600278
4996.243388,-20725.766376,148.041188,-76149.892501
4996.245962,-10658.965565,6513.812290,-75690.235202
4996.248536,10658.965565,19837.519246,-73238.729609
4996.251110,9326.594869,10214.842000,-73698.386908
4996.253683,3701.029710,148.041188,-78907.836294
4996.256257,-16876.695478,-10362.883188,-81206.122788
4996.258831,-15544.324782,-16432.571912,-81052.903688
4996.261405,-3997.112087,-3997.112087,-81052.903688
4996.263978,-4145.153275,-15248.242405,-85496.257577
4996.266552,-4293.194464,-1776.494261,-75843.454302
4996.269126,-12139.377449,12879.583391,-72625.853210
4996.271700,-3256.906145,15840.407159,-76149.892501
4996.274273,740.205942,14656.077652,-75230.577904
4996.276847,7105.977043,740.205942,-79827.150892
4996.279421,-6217.729913,-14211.954086,-81206.122788
4996.281995,-13767.830521,-18061.024985,-82891.532884
4996.284568,-14804.118840,-5625.565159,-77988.521696
4996.287142,296.082377,7550.100608,-77835.302597
4996.289716,23982.672521,20133.601622,-72319.415011
4996.292290,19985.560434,15988.448347,-75843.454302
4996.294863,15840.407159,30792.567187,-70174.347617
4996.297437,-4145.153275,3849.070898,-78601.398095
4996.300011,2220.617826,-5329.482782,-77835.302597
4996.302585,1628.453072,-12435.459826,-82278.656485
4996.305159,15692.365970,-17172.777854,-82891.532884
4996.307732,6513.812290,-740.205942,-78141.740796
4996.310306,-148.041188,10658.965565,-76915.987999
4996.312880,5033.400406,15544.324782,-72625.853210
4996.315454,13619.789333,14952.160028,-75077.358804
4996.318027,25907.207970,1480.411884,-79061.055394
4996.320601,4589.276840,-10807.006753,-79520.712692
4996.323175,-444.123565,-17468.860231,-84576.942979
4996.325748,-3256.906145,-12583.501014,-81052.903688
4996.328322,1036.288319,-15692.365970,-82585.094684
4996.330895,9770.718434,-1480.411884,-77069.207099
4996.333469,1036.288319,16136.489536,-76303.111601
4996.336043,-4293.194464,13767.830521,-76149.892501
4996.338616,-15988.448347,21465.972318,-69714.690318
4996.341190,-4885.359217,-6661.853478,-82125.437386
4996.343764,5921.647536,-7994.224174,-78448.178995
4996.346337,-9326.594869,-19837.519246,-85802.695776
4996.348911,-9474.636058,-4737.318029,-78294.959896
4996.351485,-19541.436869,12435.459826,-75996.673402
4996.354058,-5181.441594,14804.118840,-75077.358804
4996.356632,8142.265362,22798.343014,-71553.319513
4996.359206,6513.812290,17172.777854,-76762.768900
4996.361779,-5773.606348,9918.759623,-73391.948708
4996.364353,-18801.230927,1036.288319,-75996.673402
4996.366927,-15248.242405,-20577.725188,-83810.847481
4996.369500,-13323.706956,-8290.306550,-79061.055394
4996.372074,-2960.823768,-4589.276840,-81359.341888
4996.374648,-2220.617826,10214.842000,-75690.235202
4996.377221,592.164754,20133.601622,-74311.263306
4996.379795,-8882.471304,9918.759623,-73238.729609
4996.382369,10658.965565,6069.688724,-73698.386908
4996.384942,13027.624579,-16876.695478,-86415.572174
4996.387516,18061.024985,-6069.688724,-82738.313784
4996.390089,-2812.782580,-7550.100608,-76456.330700
4996.392663,-13619.789333,-18505.148550,-83810.847481
4996.395237,-148.041188,-2516.700203,-76915.987999
4996.397810,17616.901420,13619.789333,-77222.426198
4996.400384,13619.789333,11547.212695,-79214.274493
4996.402958,6069.688724,20281.642811,-70634.004916
4996.405531,1924.535449,2960.823768,-79061.055394
4996.408105,2220.617826,-11991.336260,-80133.589091
4996.410679,7105.977043,-14211.954086,-80286.808190
4996.413252,9178.553681,-6069.688724,-82125.437386
4996.415826,2368.659014,3849.070898,-79214.274493
4996.418400,2516.700203,21614.013506,-72932.291410
4996.420972,7402.059420,13767.830521,-76149.892501
4996.423545,17468.860231,19097.313304,-73698.386908
4996.426117,20577.725188,16580.613101,-73851.606007
4996.428690,-6069.688724,-1924.535449,-79673.931792
4996.431263,-21614.013506,-13175.665768,-79673.931792
4996.433835,-24870.919651,-18505.148550,-81206.122788
4996.436408,-148.041188,-7105.977043,-84270.504780
4996.438980,8586.388927,6217.729913,-76609.549800
4996.441553,4737.318029,21021.848753,-74617.701505
4996.444125,-5181.441594,19245.354492,-72472.634111
4996.446698,-13323.706956,4441.235652,-73391.948708
4996.449271,-1924.535449,-12435.459826,-71859.757712
4996.451843,3108.864956,-5625.565159,-84883.381178
4996.454416,-5033.400406,-13619.789333,-80440.027290
4996.456988,-18949.272115,-10510.924376,-80440.027290
4996.459561,-18505.148550,-7698.141797,-79214.274493
4996.462134,-6217.729913,12731.542202,-72012.976812
4996.464706,3997.112087,14508.036463,-79520.712692
4996.467279,7254.018232,18653.189738,-73085.510509
4996.469851,-2220.617826,7254.018232,-75230.577904
4996.472424,-13471.748144,-12879.583391,-83044.751983
4996.474996,2516.700203,-15396.283594,-81359.341888
4996.477569,10955.047942,-10214.842000,-81972.218286
4996.480142,15692.365970,888.247130,-79673.931792
4996.482714,1036.288319,5477.523971,-74158.044206
4996.485287,-9178.553681,5329.482782,-78294.959896
4996.487859,6661.853478,15840.407159,-74158.044206
