#time,accel_x,accel_y,accel_z
2294.687780,740.205942,1776.494261,-77528.864398
2294.690348,296.082377,2072.576638,-79061.055394
2294.692916,888.247130,2812.782580,-80899.684589
2294.695483,296.082377,2220.617826,-80593.246390
2294.698051,444.123565,1036.288319,-78754.617194
2294.700619,-296.082377,444.123565,-77835.302597
2294.703170,-1332.370696,888.247130,-77375.645298
2294.705731,-296.082377,1628.453072,-78141.740796
2294.708292,444.123565,2368.659014,-79673.931792
2294.710854,444.123565,2664.741391,-80286.808190
2294.713415,592.164754,1924.535449,-79827.150892
2294.715976,-592.164754,2516.700203,-79061.055394
2294.718538,-1184.329507,0.000000,-77375.645298
2294.721099,-740.205942,0.000000,-78141.740796
2294.723661,740.205942,1480.411884,-77682.083497
2294.726222,444.123565,2516.700203,-79214.274493
2294.728783,1332.370696,2368.659014,-79980.369991
2294.731345,-296.082377,2368.659014,-79827.150892
2294.733906,1036.288319,296.082377,-77682.083497
2294.736468,888.247130,1332.370696,-77682.083497
2294.739029,2664.741391,-1184.329507,-78907.836294
2294.741590,4293.194464,148.041188,-78141.740796
2294.744152,6365.771101,5477.523971,-79520.712692
2294.746713,7402.059420,-148.041188,-80746.465489
2294.749275,5033.400406,4589.276840,-78907.836294
2294.751836,-592.164754,0.000000,-79367.493593
2294.754397,-1776.494261,3552.988522,-77528.864398
2294.756959,2072.576638,-1480.411884,-78141.740796
2294.759520,3701.029710,1332.370696,-79061.055394
2294.762081,6513.812290,3701.029710,-79520.712692
2294.764643,3849.070898,592.164754,-79520.712692
2294.767204,6957.935855,6365.771101,-78601.398095
2294.769766,-9030.512492,-1332.370696,-79520.712692
2294.772327,-6365.771101,2664.741391,-78294.959896
2294.774888,-2072.576638,-1776.494261,-76915.987999
2294.777450,-2220.617826,-2220.617826,-79673.931792
2294.780011,2812.782580,8882.471304,-77222.426198
2294.782573,2220.617826,-2368.659014,-81512.560987
2294.785134,-5329.482782,7105.977043,-77528.864398
2294.787695,-6365.771101,2072.576638,-80133.589091
2294.790257,-1776.494261,-3108.864956,-79367.493593
2294.792818,-1036.288319,444.123565,-76915.987999
2294.795380,-4293.194464,3108.864956,-78448.178995
2294.797941,-5329.482782,1184.329507,-78141.740796
2294.800502,-4145.153275,4441.235652,-80286.808190
2294.803064,-1480.411884,4145.153275,-80286.808190
2294.805617,888.247130,1332.370696,-79980.369991
2294.808170,-1332.370696,-1036.288319,-78141.740796
2294.810724,-1036.288319,888.247130,-76149.892501
2294.813277,-2960.823768,4737.318029,-75996.673402
2294.815830,-4589.276840,-148.041188,-81206.122788
2294.818384,-11843.295072,4293.194464,-78754.617194
2294.820937,-3552.988522,7402.059420,-80286.808190
2294.823490,-8290.306550,-6069.688724,-80286.808190
2294.826043,-2368.659014,5033.400406,-75230.577904
2294.828597,2220.617826,-2812.782580,-78448.178995
2294.831150,-1480.411884,740.205942,-77222.426198
2294.833703,-7698.141797,2220.617826,-78907.836294
2294.836257,-2664.741391,2516.700203,-81665.780087
2294.838810,-10362.883188,3256.906145,-80899.684589
2294.841363,1776.494261,-296.082377,-78907.836294
2294.843917,4293.194464,148.041188,-75383.797003
2294.846470,-6069.688724,3552.988522,-77835.302597
2294.849023,-888.247130,-3552.988522,-79367.493593
2294.851576,-1480.411884,4145.153275,-79520.712692
2294.854130,4589.276840,2664.741391,-82278.656485
2294.856683,3997.112087,-296.082377,-80286.808190
2294.859236,4737.318029,10214.842000,-74617.701505
2294.861790,-5477.523971,-2220.617826,-79520.712692
2294.864343,1924.535449,0.000000,-77069.207099
2294.866896,3552.988522,592.164754,-76609.549800
2294.869450,4885.359217,-444.123565,-83044.751983
2294.872003,8586.388927,9178.553681,-77682.083497
2294.874556,2368.659014,-888.247130,-80133.589091
2294.877109,-888.247130,6069.688724,-75537.016103
2294.879663,-888.247130,-2516.700203,-79827.150892
2294.882216,1924.535449,-1184.329507,-78141.740796
2294.884769,8586.388927,3256.906145,-78448.178995
2294.887323,6957.935855,-444.123565,-80899.684589
2294.889876,4885.359217,4885.359217,-76456.330700
2294.892429,2368.659014,3849.070898,-77835.302597
2294.894983,2072.576638,1924.535449,-79673.931792
2294.897536,3256.906145,-1480.411884,-80593.246390
2294.900089,5181.441594,2812.782580,-76609.549800
2294.902643,-1036.288319,-2368.659014,-79827.150892
2294.905196,0.000000,3701.029710,-76456.330700
2294.907745,296.082377,4145.153275,-78907.836294
2294.910295,1776.494261,296.082377,-81818.999186
2294.912844,4589.276840,1184.329507,-79980.369991
2294.915393,8734.430116,3108.864956,-79214.274493
2294.917943,6957.935855,-2664.741391,-77528.864398
2294.920492,1480.411884,1924.535449,-76609.549800
2294.923042,740.205942,2812.782580,-77528.864398
2294.925591,1480.411884,2220.617826,-80593.246390
2294.928140,5773.606348,2072.576638,-81818.999186
2294.930690,4737.318029,4737.318029,-79827.150892
2294.933239,5033.400406,-2960.823768,-77988.521696
2294.935789,-740.205942,1184.329507,-75383.797003
2294.938338,1628.453072,4737.318029,-77222.426198
2294.940887,-592.164754,-888.247130,-79980.369991
2294.943437,-1776.494261,2516.700203,-81818.999186
2294.945986,3701.029710,-592.164754,-80286.808190
2294.948536,4589.276840,3256.906145,-79214.274493
2294.951085,1480.411884,0.000000,-78141.740796
2294.953634,-5477.523971,296.082377,-76149.892501
2294.956184,-4885.359217,8734.430116,-77069.207099
2294.958733,-9030.512492,-6513.812290,-83197.971083
2294.961283,2812.782580,4293.194464,-79980.369991
2294.963832,1184.329507,592.164754,-79827.150892
2294.966382,-2812.782580,-296.082377,-77682.083497
2294.968931,-4589.276840,2960.823768,-75230.577904
2294.971480,-2368.659014,-1036.288319,-79673.931792
2294.974030,-4441.235652,3404.947333,-79367.493593
2294.976579,-1480.411884,-1628.453072,-81818.999186
2294.979129,-5181.441594,4441.235652,-77069.207099
2294.981678,-3701.029710,-296.082377,-79367.493593
2294.984227,-4145.153275,-592.164754,-78754.617194
2294.986777,-1776.494261,1184.329507,-77682.083497
2294.989326,-1924.535449,-1776.494261,-80593.246390
2294.991876,0.000000,4589.276840,-78294.959896
2294.994425,-5921.647536,1480.411884,-79520.712692
2294.996974,148.041188,4145.153275,-77835.302597
2294.999524,296.082377,888.247130,-77988.521696
2295.002073,-1036.288319,740.205942,-79980.369991
2295.004623,296.082377,592.164754,-79673.931792
2295.007172,-2516.700203,740.205942,-79367.493593
2295.009716,-3404.947333,1776.494261,-79061.055394
2295.012261,-9474.636058,592.164754,-77682.083497
2295.014806,-13471.748144,6217.729913,-77222.426198
2295.017350,-4589.276840,-888.247130,-79980.369991
2295.019895,-2072.576638,-1628.453072,-79980.369991
2295.022439,296.082377,444.123565,-81052.903688
2295.024984,-3108.864956,2220.617826,-76762.768900
2295.027528,-11103.089130,296.082377,-76762.768900
2295.030073,-3404.947333,7846.182985,-77682.083497
2295.032617,-3108.864956,-4293.194464,-81206.122788
2295.035162,3404.947333,3552.988522,-80133.589091
2295.037706,4737.318029,-740.205942,-79367.493593
2295.040251,-9474.636058,4589.276840,-78141.740796
2295.042795,148.041188,-1924.535449,-78141.740796
2295.045340,-8438.347739,4737.318029,-75996.673402
2295.047884,6365.771101,-296.082377,-81052.903688
2295.050429,4293.194464,-5477.523971,-82891.532884
2295.052973,8586.388927,7550.100608,-76149.892501
2295.055518,-7550.100608,1924.535449,-79520.712692
2295.058062,-296.082377,-444.123565,-78907.836294
2295.060607,3552.988522,2072.576638,-75077.358804
2295.063151,4589.276840,-4293.194464,-82125.437386
2295.065696,11399.171507,7698.141797,-76149.892501
2295.068240,1924.535449,-1332.370696,-80899.684589
2295.070785,1924.535449,5181.441594,-77988.521696
2295.073329,-4737.318029,0.000000,-77682.083497
2295.075874,592.164754,1628.453072,-78754.617194
2295.078418,8882.471304,7550.100608,-77375.645298
2295.080963,3404.947333,-9770.718434,-82738.313784
2295.083507,1924.535449,13767.830521,-75383.797003
2295.086052,3404.947333,-6661.853478,-83197.971083
2295.088596,2812.782580,6365.771101,-75996.673402
2295.091141,-1924.535449,1480.411884,-80593.246390
2295.093686,5033.400406,148.041188,-77988.521696
2295.096230,1628.453072,1184.329507,-78141.740796
2295.098775,444.123565,0.000000,-80440.027290
2295.101319,1332.370696,4737.318029,-75537.016103
2295.103864,-592.164754,740.205942,-79673.931792
2295.106408,7698.141797,3701.029710,-78601.398095
2295.108953,5625.565159,-2516.700203,-80593.246390
2295.111495,3701.029710,6957.935855,-76762.768900
2295.114038,740.205942,-4145.153275,-79827.150892
2295.116581,-2516.700203,3849.070898,-76303.111601
2295.119124,6957.935855,4293.194464,-79827.150892
2295.121666,7402.059420,-2368.659014,-79367.493593
2295.124209,5773.606348,7254.018232,-79520.712692
2295.126752,2812.782580,-4145.153275,-81818.999186
2295.129295,148.041188,2664.741391,-75383.797003
2295.131837,-6513.812290,7994.224174,-75996.673402
2295.134380,1036.288319,740.205942,-80593.246390
2295.136923,4885.359217,-4145.153275,-79673.931792
2295.139466,5477.523971,4885.359217,-78294.959896
2295.142009,-4293.194464,3701.029710,-78754.617194
2295.144551,-11399.171507,-1184.329507,-77988.521696
2295.147094,-7698.141797,4293.194464,-77069.207099
2295.149637,2664.741391,-592.164754,-78601.398095
2295.152180,1036.288319,740.205942,-79980.369991
2295.154722,1036.288319,2516.700203,-79980.369991
2295.157265,-4589.276840,1480.411884,-76303.111601
2295.159808,-12287.418637,4589.276840,-79367.493593
2295.162351,-3552.988522,-1628.453072,-79214.274493
2295.164893,-1628.453072,1332.370696,-77528.864398
2295.167436,-4737.318029,3552.988522,-79827.150892
2295.169979,1628.453072,-4441.235652,-78141.740796
2295.172522,-4885.359217,6365.771101,-76609.549800
2295.175065,-6809.894666,2072.576638,-81512.560987
2295.177607,3552.988522,-2960.823768,-79214.274493
2295.180150,-6957.935855,4145.153275,-76915.987999
2295.182693,296.082377,-1332.370696,-79980.369991
2295.185236,-1480.411884,-148.041188,-79214.274493
2295.187778,-296.082377,1924.535449,-78141.740796
2295.190321,-1924.535449,3108.864956,-79061.055394
2295.192864,3256.906145,2516.700203,-78907.836294
2295.195407,-3256.906145,1776.494261,-79827.150892
2295.197949,-3701.029710,-1480.411884,-79520.712692
2295.200492,-11991.336260,3256.906145,-76456.330700
2295.203035,-6661.853478,0.000000,-79214.274493
2295.205578,-6217.729913,1480.411884,-77528.864398
2295.208120,4441.235652,5181.441594,-80440.027290
2295.210663,-4441.235652,1628.453072,-80593.246390
2295.213206,-2960.823768,-1628.453072,-79061.055394
2295.215748,-9622.677246,4589.276840,-76609.549800
2295.218290,-5625.565159,-4441.235652,-80440.027290
2295.220833,-1332.370696,6957.935855,-76303.111601
2295.223375,2960.823768,-2072.576638,-80746.465489
2295.225917,-4293.194464,6661.853478,-78294.959896
2295.228460,-3108.864956,-3552.988522,-80286.808190
2295.231002,-6217.729913,7402.059420,-74924.139704
2295.233545,-1480.411884,-2812.782580,-81052.903688
2295.236087,6957.935855,-1036.288319,-78448.178995
2295.238629,7846.182985,5329.482782,-79367.493593
2295.241172,-8438.347739,4441.235652,-79214.274493
2295.243714,-2072.576638,-2664.741391,-81972.218286
2295.246256,592.164754,3997.112087,-76303.111601
2295.248799,1924.535449,-1628.453072,-79827.150892
2295.251341,13619.789333,1628.453072,-77375.645298
2295.253884,3256.906145,2368.659014,-77988.521696
2295.256426,-296.082377,-1332.370696,-81818.999186
2295.258968,-444.123565,6069.688724,-77069.207099
2295.261511,2072.576638,740.205942,-82431.875585
2295.264053,9918.759623,888.247130,-77682.083497
2295.266595,2368.659014,1628.453072,-77375.645298
2295.269138,1776.494261,-2220.617826,-77988.521696
2295.271680,-592.164754,3997.112087,-78601.398095
2295.274223,4737.318029,-740.205942,-81818.999186
2295.276765,4293.194464,3552.988522,-79214.274493
2295.279307,148.041188,3997.112087,-78294.959896
2295.281850,-740.205942,888.247130,-78754.617194
2295.284392,-1480.411884,148.041188,-77069.207099
2295.286934,3108.864956,592.164754,-78907.836294
2295.289477,7105.977043,296.082377,-80593.246390
2295.292019,10807.006753,5625.565159,-79214.274493
2295.294561,6365.771101,1628.453072,-80593.246390
2295.297104,740.205942,1924.535449,-78907.836294
2295.299646,-1628.453072,2368.659014,-77528.864398
2295.302189,-740.205942,3404.947333,-78141.740796
2295.304731,8290.306550,-5329.482782,-79980.369991
2295.307273,7698.141797,5921.647536,-77682.083497
2295.309816,5329.482782,2664.741391,-80899.684589
2295.312358,2220.617826,-2664.741391,-79214.274493
2295.314899,-5625.565159,4145.153275,-77528.864398
2295.317439,740.205942,6217.729913,-78141.740796
2295.319980,6365.771101,-7254.018232,-80440.027290
2295.322520,10066.800811,4885.359217,-76915.987999
2295.325061,-888.247130,1776.494261,-79214.274493
2295.327602,-10807.006753,-592.164754,-80440.027290
2295.330142,-7105.977043,5329.482782,-77069.207099
2295.332683,-3849.070898,1036.288319,-81052.903688
2295.335223,7698.141797,-1776.494261,-79520.712692
2295.337764,2516.700203,3552.988522,-76456.330700
2295.340304,-9030.512492,-1184.329507,-77988.521696
2295.342845,-8586.388927,1924.535449,-79520.712692
2295.345385,-1776.494261,-888.247130,-80286.808190
2295.347926,-1184.329507,3997.112087,-79367.493593
2295.350467,888.247130,592.164754,-80440.027290
2295.353007,-3849.070898,592.164754,-76149.892501
2295.355548,-3997.112087,-1036.288319,-77835.302597
2295.358088,-7994.224174,5181.441594,-76609.549800
2295.360629,-2220.617826,2960.823768,-79520.712692
2295.363169,-4293.194464,-1628.453072,-79673.931792
2295.365710,-3701.029710,7402.059420,-77988.521696
2295.368251,-8142.265362,3849.070898,-77988.521696
2295.370791,-1628.453072,-5477.523971,-79673.931792
2295.373332,6069.688724,6069.688724,-75383.797003
2295.375872,-5773.606348,3701.029710,-79827.150892
2295.378413,-8142.265362,592.164754,-80440.027290
2295.380953,-9178.553681,-148.041188,-79214.274493
2295.383494,-6957.935855,4145.153275,-78601.398095
2295.386035,-7550.100608,-592.164754,-78448.178995
2295.388575,-1776.494261,740.205942,-77988.521696
2295.391116,-1480.411884,1776.494261,-77375.645298
2295.393656,-4589.276840,-1480.411884,-79367.493593
2295.396197,-6069.688724,4441.235652,-79673.931792
2295.398737,-4737.318029,3108.864956,-79827.150892
2295.401278,-4293.194464,148.041188,-78141.740796
2295.403819,6809.894666,888.247130,-78601.398095
2295.406359,-2368.659014,5625.565159,-77069.207099
2295.408900,-1628.453072,-6809.894666,-81665.780087
2295.411440,-6809.894666,6957.935855,-74924.139704
2295.413981,0.000000,-148.041188,-81665.780087
2295.416521,9326.594869,592.164754,-78754.617194
2295.419062,6661.853478,9918.759623,-78601.398095
2295.421602,-4441.235652,4441.235652,-77835.302597
2295.424143,-2220.617826,-6365.771101,-80746.465489
2295.426683,-1184.329507,4885.359217,-75843.454302
2295.429224,2220.617826,-3108.864956,-81512.560987
2295.431765,13027.624579,4293.194464,-77528.864398
2295.434305,3256.906145,4885.359217,-77682.083497
2295.436846,1480.411884,1480.411884,-81818.999186
2295.439386,-2072.576638,3849.070898,-77528.864398
2295.441927,5773.606348,-1036.288319,-80746.465489
2295.444467,4737.318029,1776.494261,-77222.426198
2295.447008,2368.659014,-592.164754,-77988.521696
2295.449548,-444.123565,6809.894666,-77222.426198
2295.452089,-3701.029710,-3849.070898,-80899.684589
2295.454629,3256.906145,5477.523971,-79214.274493
2295.457170,-740.205942,1480.411884,-81665.780087
2295.459710,1776.494261,-592.164754,-77835.302597
2295.462251,1332.370696,1184.329507,-76303.111601
2295.464791,-4145.153275,-1776.494261,-77988.521696
2295.467332,7846.182985,3108.864956,-77988.521696
2295.469872,5329.482782,2220.617826,-80746.465489
2295.472413,11103.089130,740.205942,-81972.218286
2295.474954,1480.411884,2220.617826,-80593.246390
2295.477494,-1036.288319,3997.112087,-75996.673402
2295.480035,-1332.370696,-592.164754,-77222.426198
2295.482575,4885.359217,-592.164754,-77988.521696
2295.485116,9474.636058,-296.082377,-78601.398095
2295.487656,5033.400406,5921.647536,-79827.150892
2295.490197,1924.535449,-1036.288319,-83657.628382
2295.492737,-6365.771101,888.247130,-79061.055394
2295.495278,-4589.276840,6365.771101,-75843.454302
2295.497818,4737.318029,-4737.318029,-77069.207099
2295.500358,13767.830521,-3997.112087,-80440.027290
2295.502899,-7846.182985,3108.864956,-78601.398095
2295.505439,-11103.089130,5477.523971,-80593.246390
2295.507979,-11547.212695,1776.494261,-79980.369991
2295.510520,7550.100608,1332.370696,-80286.808190
2295.513060,2072.576638,1480.411884,-78294.959896
2295.515600,-148.041188,1184.329507,-76303.111601
2295.518141,-6661.853478,740.205942,-76609.549800
2295.520681,-6957.935855,2516.700203,-78601.398095
2295.523221,-2960.823768,-888.247130,-81359.341888
2295.525762,-888.247130,3701.029710,-81206.122788
2295.528302,-1776.494261,4145.153275,-77988.521696
2295.530842,-6661.853478,-3108.864956,-78141.740796
2295.533383,-4885.359217,2960.823768,-75537.016103
2295.535923,-296.082377,-2812.782580,-80133.589091
2295.538463,-1924.535449,1776.494261,-79367.493593
2295.541003,-4145.153275,3404.947333,-81512.560987
2295.543544,1924.535449,2516.700203,-80593.246390
2295.546084,-3997.112087,148.041188,-78754.617194
2295.548624,-2516.700203,740.205942,-78601.398095
2295.551165,-2220.617826,2516.700203,-74924.139704
2295.553705,-6069.688724,1628.453072,-78448.178995
2295.556245,-4441.235652,-592.164754,-80440.027290
2295.558786,-9178.553681,2516.700203,-80440.027290
2295.561326,-5329.482782,2960.823768,-79061.055394
2295.563866,-1924.535449,1628.453072,-79520.712692
2295.566407,-1628.453072,2220.617826,-77222.426198
2295.568947,444.123565,148.041188,-78601.398095
2295.571487,-8734.430116,-592.164754,-77375.645298
2295.574028,-3108.864956,3849.070898,-77069.207099
2295.576568,-5181.441594,2220.617826,-80899.684589
2295.579108,-4293.194464,4589.276840,-78907.836294
2295.581649,2812.782580,-3849.070898,-79980.369991
2295.584189,2812.782580,6809.894666,-76303.111601
2295.586729,-4737.318029,-5477.523971,-80593.246390
2295.589269,9770.718434,4885.359217,-76762.768900
2295.591810,1924.535449,6217.729913,-78294.959896
2295.594350,7846.182985,-3849.070898,-81665.780087
2295.596890,-1332.370696,6513.812290,-76762.768900
2295.599432,-3552.988522,-2220.617826,-81972.218286
2295.601974,3256.906145,-148.041188,-77528.864398
2295.604516,8586.388927,3552.988522,-75996.673402
2295.607058,4885.359217,3997.112087,-76609.549800
2295.609599,3849.070898,-2516.700203,-80899.684589
2295.612141,148.041188,6513.812290,-76609.549800
2295.614683,-444.123565,-1628.453072,-83504.409282
2295.617225,9474.636058,2072.576638,-77375.645298
2295.619767,5181.441594,1924.535449,-78601.398095
2295.622308,5921.647536,444.123565,-78448.178995
2295.624850,-1332.370696,1184.329507,-76762.768900
2295.627392,592.164754,1480.411884,-80286.808190
2295.629934,-1480.411884,2664.741391,-79827.150892
2295.632475,2812.782580,1184.329507,-80593.246390
2295.635017,740.205942,1776.494261,-78141.740796
2295.637559,296.082377,-2960.823768,-77988.521696
2295.640101,5477.523971,3849.070898,-74617.701505
2295.642643,9474.636058,1184.329507,-80133.589091
2295.645184,4737.318029,1184.329507,-78907.836294
2295.647726,3701.029710,3404.947333,-80593.246390
2295.650268,444.123565,6513.812290,-78294.959896
2295.652810,3552.988522,-5921.647536,-80440.027290
2295.655351,5033.400406,5329.482782,-74770.920605
2295.657893,888.247130,1480.411884,-77069.207099
2295.660435,5329.482782,-7105.977043,-80746.465489
2295.662977,-1036.288319,6957.935855,-77375.645298
2295.665519,-2072.576638,4441.235652,-81512.560987
2295.668060,-444.123565,-6513.812290,-81206.122788
2295.670602,1332.370696,10658.965565,-75843.454302
2295.673144,2516.700203,-592.164754,-78907.836294
2295.675686,-6513.812290,-4589.276840,-78141.740796
2295.678228,-6217.729913,11251.130318,-75077.358804
2295.680769,-6069.688724,-4293.194464,-83504.409282
2295.683311,1924.535449,888.247130,-80746.465489
2295.685853,5181.441594,4885.359217,-78754.617194
2295.688395,-7550.100608,592.164754,-77222.426198
2295.690936,-10658.965565,592.164754,-77682.083497
2295.693478,-3404.947333,-1036.288319,-77528.864398
2295.696020,-2516.700203,-1776.494261,-79214.274493
2295.698562,1628.453072,592.164754,-80440.027290
2295.701099,-3701.029710,6957.935855,-77375.645298
2295.703641,-6809.894666,444.123565,-80440.027290
2295.706183,-7846.182985,3108.864956,-77069.207099
2295.708725,-5477.523971,2220.617826,-78294.959896
2295.711267,1628.453072,-2664.741391,-78141.740796
2295.713809,-4737.318029,-148.041188,-78141.740796
2295.716351,-4441.235652,3108.864956,-78601.398095
2295.718893,740.205942,4737.318029,-79827.150892
2295.721435,-5181.441594,-592.164754,-80899.684589
2295.723977,-4441.235652,6661.853478,-77682.083497
2295.726518,-11843.295072,-444.123565,-78907.836294
2295.729060,-6513.812290,-2664.741391,-78601.398095
2295.731602,-3256.906145,1924.535449,-75843.454302
2295.734144,-3849.070898,3849.070898,-78754.617194
2295.736686,-5033.400406,-592.164754,-81512.560987
2295.739228,-1332.370696,4145.153275,-79367.493593
2295.741770,-6957.935855,6513.812290,-79367.493593
2295.744312,-3997.112087,-6069.688724,-80440.027290
2295.746854,-1036.288319,740.205942,-74617.701505
2295.749396,-3404.947333,4589.276840,-77682.083497
2295.751938,444.123565,-6809.894666,-80899.684589
2295.754480,-6809.894666,11695.253884,-76609.549800
2295.757022,0.000000,-1332.370696,-84423.723880
2295.759563,10362.883188,148.041188,-78907.836294
2295.762105,6661.853478,5773.606348,-75537.016103
2295.764647,-3849.070898,3256.906145,-76303.111601
2295.767189,1332.370696,-4589.276840,-80593.246390
2295.769731,2664.741391,4885.359217,-76303.111601
2295.772273,-444.123565,-2516.700203,-83504.409282
2295.774815,9474.636058,5477.523971,-79367.493593
2295.777357,5773.606348,4737.318029,-78141.740796
2295.779899,1924.535449,-3849.070898,-79061.055394
2295.782441,3108.864956,4737.318029,-74924.139704
2295.784983,1924.535449,-1924.535449,-79980.369991
2295.787525,5181.441594,1628.453072,-77988.521696
2295.790066,3997.112087,1184.329507,-80746.465489
2295.792608,444.123565,4441.235652,-78294.959896
2295.795150,5033.400406,3256.906145,-79367.493593
2295.797692,-148.041188,0.000000,-76762.768900
2295.800234,-592.164754,-1776.494261,-79214.274493
2295.802777,1628.453072,5329.482782,-77222.426198
2295.805320,444.123565,-2664.741391,-80133.589091
2295.807863,6809.894666,7550.100608,-79214.274493
2295.810406,7698.141797,1776.494261,-78754.617194
2295.812949,6661.853478,2220.617826,-78754.617194
2295.815492,3552.988522,6217.729913,-75996.673402
2295.818035,1480.411884,-4441.235652,-81206.122788
2295.820578,7254.018232,5033.400406,-77222.426198
2295.823121,888.247130,-148.041188,-78294.959896
2295.825665,8734.430116,5477.523971,-78141.740796
2295.828208,-2812.782580,3256.906145,-79827.150892
2295.830751,-3552.988522,-1628.453072,-81052.903688
2295.833294,3701.029710,3849.070898,-76762.768900
2295.835837,2220.617826,-3701.029710,-80440.027290
2295.838380,9474.636058,148.041188,-76609.549800
2295.840923,-5625.565159,6365.771101,-75537.016103
2295.843466,-8586.388927,8882.471304,-78601.398095
2295.846009,-7846.182985,-5477.523971,-83044.751983
2295.848552,7550.100608,2220.617826,-79980.369991
2295.851095,-1924.535449,-1332.370696,-79673.931792
2295.853638,-2516.700203,1924.535449,-77682.083497
2295.856181,-3997.112087,3256.906145,-73851.606007
2295.858724,-7254.018232,1924.535449,-78907.836294
2295.861267,-5921.647536,3701.029710,-80593.246390
2295.863810,-1776.494261,296.082377,-81665.780087
2295.866353,-888.247130,740.205942,-79827.150892
2295.868896,-4145.153275,2516.700203,-76456.330700
2295.871439,-5477.523971,-1036.288319,-76762.768900
2295.873982,-3404.947333,888.247130,-77835.302597
2295.876525,-3108.864956,740.205942,-80286.808190
2295.879068,740.205942,5329.482782,-81512.560987
2295.881611,-888.247130,148.041188,-81665.780087
2295.884154,1332.370696,1184.329507,-77835.302597
2295.886697,-2812.782580,3404.947333,-77528.864398
2295.889240,-3108.864956,-1036.288319,-77222.426198
2295.891783,-5033.400406,0.000000,-77988.521696
2295.894327,-7846.182985,4737.318029,-79061.055394
2295.896870,-4737.318029,888.247130,-82125.437386
2295.899413,-1924.535449,2072.576638,-77988.521696
2295.901956,-4885.359217,2664.741391,-76609.549800
2295.904432,-10066.800811,-444.123565,-77682.083497
2295.906909,-2220.617826,6069.688724,-77222.426198
2295.909386,0.000000,-5181.441594,-80440.027290
2295.911863,1924.535449,3256.906145,-79520.712692
2295.914340,-5329.482782,4441.235652,-80133.589091
2295.916817,-4145.153275,740.205942,-78141.740796
2295.919294,-5329.482782,2664.741391,-78294.959896
2295.921771,11695.253884,2516.700203,-76456.330700
2295.924247,2220.617826,-1480.411884,-81052.903688
2295.926724,6069.688724,0.000000,-77988.521696
2295.929201,-3701.029710,5477.523971,-77222.426198
2295.931678,-4293.194464,-2072.576638,-80746.465489
2295.934155,4145.153275,7105.977043,-76456.330700
2295.936632,2516.700203,-2960.823768,-82125.437386
2295.939109,10362.883188,4441.235652,-76609.549800
2295.941585,888.247130,3552.988522,-77988.521696
2295.944062,-2368.659014,-3849.070898,-79520.712692
2295.946539,6365.771101,-592.164754,-79673.931792
2295.949016,-1036.288319,5773.606348,-78294.959896
2295.951493,10807.006753,1036.288319,-80593.246390
2295.953970,2812.782580,4885.359217,-78601.398095
2295.956447,4885.359217,-148.041188,-79673.931792
2295.958924,592.164754,1184.329507,-77375.645298
2295.961400,-1036.288319,-296.082377,-77988.521696
2295.963877,-592.164754,0.000000,-79061.055394
2295.966354,4441.235652,-444.123565,-79980.369991
2295.968831,6365.771101,4737.318029,-77375.645298
2295.971308,6069.688724,-148.041188,-81359.341888
2295.973785,8142.265362,0.000000,-76762.768900
2295.976262,3108.864956,3256.906145,-77528.864398
2295.978739,3701.029710,740.205942,-78907.836294
2295.981215,5033.400406,3701.029710,-78448.178995
2295.983692,5921.647536,1332.370696,-81206.122788
2295.986169,4145.153275,888.247130,-77375.645298
2295.988646,1628.453072,4737.318029,-77682.083497
2295.991123,444.123565,444.123565,-78754.617194
2295.993600,-1480.411884,-1036.288319,-77988.521696
2295.996077,5625.565159,4737.318029,-79367.493593
2295.998553,7698.141797,-4589.276840,-80746.465489
2296.001030,-8882.471304,2960.823768,-77682.083497
2296.003525,-4293.194464,14804.118840,-76609.549800
2296.006020,-9030.512492,-6217.729913,-82278.656485
2296.008514,9030.512492,148.041188,-78294.959896
2296.011009,-2220.617826,2664.741391,-77528.864398
2296.013504,-7846.182985,296.082377,-79214.274493
2296.015999,-8882.471304,5477.523971,-76303.111601
2296.018493,-2368.659014,-740.205942,-80593.246390
2296.020988,-3256.906145,1924.535449,-77682.083497
2296.023483,-1036.288319,1924.535449,-80286.808190
2296.025977,-8586.388927,888.247130,-77682.083497
2296.028472,-3997.112087,740.205942,-78448.178995
2296.030967,-6365.771101,1924.535449,-77375.645298
2296.033461,-3404.947333,592.164754,-79673.931792
2296.035956,-148.041188,2072.576638,-79520.712692
2296.038451,-296.082377,148.041188,-80286.808190
2296.040946,-2220.617826,2220.617826,-78754.617194
2296.043440,-3256.906145,1184.329507,-79367.493593
2296.045935,-6513.812290,1628.453072,-78141.740796
2296.048430,-6069.688724,2368.659014,-76915.987999
2296.050924,-10214.842000,1184.329507,-78294.959896
2296.053419,-4737.318029,3849.070898,-79980.369991
2296.055914,-2220.617826,-296.082377,-80286.808190
2296.058409,-4885.359217,2072.576638,-78448.178995
2296.060903,-8882.471304,888.247130,-78601.398095
2296.063398,-9030.512492,5181.441594,-77069.207099
2296.065893,-5773.606348,-148.041188,-80899.684589
2296.068387,3256.906145,1776.494261,-79367.493593
2296.070882,-1628.453072,0.000000,-80899.684589
2296.073377,-9178.553681,3256.906145,-77682.083497
2296.075871,-1628.453072,-1480.411884,-79061.055394
2296.078366,8290.306550,2220.617826,-75843.454302
2296.080861,3701.029710,2220.617826,-81665.780087
2296.083356,5329.482782,-2812.782580,-80133.589091
2296.085850,-888.247130,5477.523971,-75230.577904
2296.088345,-10658.965565,-1776.494261,-81818.999186
2296.090840,9474.636058,2516.700203,-76456.330700
2296.093334,9326.594869,-148.041188,-79214.274493
2296.095829,9030.512492,3701.029710,-79367.493593
2296.098324,2812.782580,3997.112087,-78601.398095
2296.100818,-2072.576638,-592.164754,-80286.808190
2296.103329,1776.494261,592.164754,-79827.150892
2296.105839,3701.029710,1628.453072,-77222.426198
2296.108349,6513.812290,-888.247130,-77988.521696
2296.110859,-740.205942,2812.782580,-79520.712692
2296.113370,3701.029710,1924.535449,-79520.712692
2296.115880,-888.247130,-1332.370696,-81818.999186
2296.118390,-444.123565,3552.988522,-77988.521696
2296.120900,-1036.288319,1184.329507,-78754.617194
2296.123410,2812.782580,296.082377,-78448.178995
2296.125921,8290.306550,4441.235652,-76456.330700
2296.128431,7994.224174,-3552.988522,-80899.684589
2296.130941,5033.400406,5477.523971,-78294.959896
2296.133451,2368.659014,0.000000,-80440.027290
2296.135962,4145.153275,4737.318029,-78754.617194
2296.138472,5477.523971,1332.370696,-79061.055394
2296.140982,5329.482782,740.205942,-77375.645298
2296.143492,4885.359217,2072.576638,-77682.083497
2296.146002,-3256.906145,-1924.535449,-79214.274493
2296.148513,0.000000,6957.935855,-77375.645298
2296.151023,2664.741391,-296.082377,-82585.094684
2296.153533,11399.171507,-1776.494261,-80440.027290
2296.156043,-5477.523971,1480.411884,-77069.207099
2296.158554,-9474.636058,8734.430116,-75383.797003
2296.161064,-10955.047942,-6365.771101,-79520.712692
2296.163574,10362.883188,4885.359217,-77835.302597
2296.166084,-888.247130,-1628.453072,-81818.999186
2296.168594,-2368.659014,1184.329507,-81052.903688
2296.171105,-5921.647536,2960.823768,-77222.426198
2296.173615,-10510.924376,1480.411884,-78448.178995
2296.176125,-4885.359217,2664.741391,-78448.178995
2296.178635,-148.041188,-1036.288319,-78754.617194
2296.181146,-3701.029710,3701.029710,-78141.740796
2296.183656,-148.041188,2072.576638,-79673.931792
2296.186166,-9474.636058,0.000000,-79520.712692
2296.188676,2368.659014,1776.494261,-79520.712692
2296.191186,-5329.482782,2368.659014,-78601.398095
2296.193697,-2368.659014,296.082377,-78141.740796
2296.196207,1184.329507,2368.659014,-76915.987999
2296.198717,-4885.359217,1184.329507,-79520.712692
2296.201227,-3997.112087,740.205942,-78907.836294
2296.203749,-5773.606348,3404.947333,-78601.398095
2296.206270,-8290.306550,2664.741391,-79367.493593
2296.208791,-6957.935855,-2220.617826,-81052.903688
2296.211312,-740.205942,1036.288319,-77528.864398
2296.213834,-740.205942,1480.411884,-77222.426198
2296.216355,-9622.677246,1184.329507,-79367.493593
2296.218876,-6513.812290,2664.741391,-77988.521696
2296.221397,-1628.453072,1924.535449,-80440.027290
2296.223919,-3701.029710,2960.823768,-81818.999186
2296.226440,3552.988522,-4589.276840,-79520.712692
2296.228961,-10955.047942,8586.388927,-75383.797003
2296.231482,0.000000,-7550.100608,-80440.027290
2296.234004,10214.842000,-5477.523971,-79214.274493
2296.236525,8882.471304,11547.212695,-77222.426198
2296.239046,1036.288319,296.082377,-82585.094684
2296.241567,-5625.565159,-2664.741391,-80286.808190
2296.244089,1628.453072,7550.100608,-74924.139704
2296.246610,2072.576638,-6365.771101,-80593.246390
2296.249131,12139.377449,4293.194464,-75996.673402
2296.251652,8290.306550,3849.070898,-79520.712692
2296.254174,1184.329507,-1184.329507,-81359.341888
2296.256695,888.247130,7550.100608,-78754.617194
2296.259216,-148.041188,-1480.411884,-81818.999186
2296.261737,11103.089130,1332.370696,-75996.673402
2296.264259,-2368.659014,-444.123565,-78294.959896
2296.266780,-2960.823768,4293.194464,-76149.892501
2296.269301,-592.164754,-2072.576638,-81052.903688
2296.271822,4293.194464,6661.853478,-80133.589091
2296.274344,-1184.329507,-740.205942,-81052.903688
2296.276865,9474.636058,4589.276840,-76149.892501
2296.279386,7698.141797,296.082377,-77222.426198
2296.281908,5773.606348,-2220.617826,-79367.493593
2296.284429,8290.306550,2960.823768,-77375.645298
2296.286950,4145.153275,3552.988522,-78601.398095
2296.289471,2220.617826,2072.576638,-80440.027290
2296.291993,2812.782580,2812.782580,-79980.369991
2296.294514,7550.100608,3849.070898,-77069.207099
2296.297035,3256.906145,-5181.441594,-81052.903688
2296.299556,2516.700203,3108.864956,-74770.920605
2296.302078,-3849.070898,-3404.947333,-79520.712692
2296.304608,8290.306550,6217.729913,-79827.150892
2296.307139,6365.771101,-2220.617826,-80440.027290
2296.309669,-6513.812290,5329.482782,-79520.712692
2296.312200,-7105.977043,10510.924376,-75383.797003
2296.314731,-6069.688724,-6661.853478,-81818.999186
2296.317261,7254.018232,-148.041188,-77988.521696
2296.319792,740.205942,2368.659014,-77375.645298
2296.322323,-3552.988522,296.082377,-79061.055394
2296.324853,-9622.677246,4589.276840,-78754.617194
2296.327384,-7550.100608,3256.906145,-81206.122788
2296.329915,-4293.194464,1924.535449,-79214.274493
2296.332445,148.041188,888.247130,-79367.493593
2296.334976,-4145.153275,592.164754,-77375.645298
2296.337507,-2812.782580,888.247130,-76915.987999
2296.340037,-9474.636058,3108.864956,-77988.521696
2296.342568,444.123565,3404.947333,-80899.684589
2296.345098,-740.205942,2516.700203,-80899.684589
2296.347629,2072.576638,4293.194464,-79980.369991
2296.350160,-2960.823768,148.041188,-77528.864398
2296.352690,-3997.112087,740.205942,-76609.549800
2296.355221,-7994.224174,-3108.864956,-77835.302597
2296.357752,-9178.553681,4885.359217,-77528.864398
2296.360282,-8882.471304,2812.782580,-80440.027290
2296.362813,-1184.329507,148.041188,-82585.094684
2296.365344,2960.823768,2516.700203,-79367.493593
2296.367874,-7105.977043,1628.453072,-76456.330700
2296.370405,-6809.894666,1332.370696,-75383.797003
2296.372936,444.123565,444.123565,-77528.864398
2296.375466,-2812.782580,5773.606348,-79827.150892
2296.377997,-7105.977043,444.123565,-81972.218286
2296.380527,3997.112087,3701.029710,-79367.493593
2296.383058,1332.370696,3404.947333,-78294.959896
2296.385589,7254.018232,-2220.617826,-78141.740796
2296.388119,7550.100608,5181.441594,-75690.235202
2296.390650,-4293.194464,-1184.329507,-79673.931792
2296.393181,-2072.576638,-3552.988522,-84423.723880
2296.395711,5181.441594,6069.688724,-77835.302597
2296.398242,1332.370696,2516.700203,-79520.712692
2296.400773,10214.842000,1480.411884,-79367.493593
2296.403303,8586.388927,5625.565159,-74924.139704
2296.405842,1924.535449,-6365.771101,-79980.369991
2296.408380,3552.988522,2812.782580,-77528.864398
2296.410919,2516.700203,-1184.329507,-80440.027290
2296.413457,9918.759623,2516.700203,-79980.369991
2296.415996,3552.988522,4441.235652,-77988.521696
2296.418535,1480.411884,2960.823768,-78754.617194
2296.421073,-1332.370696,-1332.370696,-78601.398095
2296.423612,888.247130,740.205942,-77988.521696
2296.426150,3997.112087,-740.205942,-79520.712692
2296.428689,7105.977043,2812.782580,-79061.055394
2296.431227,10362.883188,3849.070898,-79061.055394
2296.433766,7254.018232,2516.700203,-80286.808190
2296.436304,5773.606348,3404.947333,-78294.959896
2296.438843,2220.617826,888.247130,-79520.712692
2296.441382,1036.288319,1628.453072,-77682.083497
2296.443920,5329.482782,1776.494261,-78754.617194
2296.446459,3552.988522,0.000000,-78754.617194
2296.448997,2516.700203,4293.194464,-78601.398095
2296.451536,-3552.988522,592.164754,-80286.808190
2296.454074,4589.276840,8882.471304,-79061.055394
2296.456613,6513.812290,-4885.359217,-81359.341888
2296.459151,-7254.018232,4885.359217,-75537.016103
2296.461690,-5921.647536,4293.194464,-76456.330700
2296.464229,-11547.212695,-3849.070898,-78448.178995
2296.466767,6217.729913,3108.864956,-79061.055394
2296.469306,-1332.370696,-444.123565,-81665.780087
2296.471844,-3108.864956,2960.823768,-79827.150892
2296.474383,-8142.265362,3404.947333,-75843.454302
2296.476921,-9178.553681,-1628.453072,-77528.864398
2296.479460,-6217.729913,2812.782580,-76303.111601
2296.481998,888.247130,-1628.453072,-80593.246390
2296.484537,740.205942,2220.617826,-80133.589091
2296.487076,-4293.194464,2960.823768,-80593.246390
2296.489614,-8438.347739,-148.041188,-80440.027290
2296.492153,148.041188,1184.329507,-77682.083497
2296.494691,-1332.370696,2812.782580,-78141.740796
2296.497230,-444.123565,-1480.411884,-77375.645298
2296.499768,-740.205942,-740.205942,-79214.274493
2296.502307,-2812.782580,2368.659014,-80133.589091
2296.504845,-9770.718434,888.247130,-81665.780087
2296.507389,-10214.842000,2516.700203,-79827.150892
2296.509933,-4293.194464,2664.741391,-77835.302597
2296.512476,-1184.329507,-740.205942,-78448.178995
2296.515020,0.000000,444.123565,-78448.178995
2296.517564,-7254.018232,4145.153275,-77682.083497
2296.520107,-6365.771101,148.041188,-80593.246390
2296.522651,-1332.370696,4737.318029,-79520.712692
2296.525195,-3256.906145,-2368.659014,-81512.560987
2296.527738,-3404.947333,5625.565159,-76456.330700
2296.530282,-2220.617826,-6217.729913,-79061.055394
2296.532825,10658.965565,2664.741391,-76149.892501
2296.535369,4885.359217,5625.565159,-79520.712692
2296.537913,5625.565159,-2516.700203,-82278.656485
2296.540456,740.205942,7550.100608,-76762.768900
2296.543000,-5773.606348,-1184.329507,-83351.190182
2296.545544,4737.318029,-2072.576638,-77375.645298
2296.548087,4885.359217,2368.659014,-77069.207099
2296.550631,9326.594869,3256.906145,-76456.330700
2296.553175,5625.565159,1480.411884,-80133.589091
2296.555718,-444.123565,2072.576638,-80286.808190
2296.558262,-1924.535449,2368.659014,-81206.122788
2296.560805,-296.082377,444.123565,-80286.808190
2296.563349,2368.659014,1332.370696,-76915.987999
2296.565893,1184.329507,-1628.453072,-77835.302597
2296.568436,3108.864956,3404.947333,-76609.549800
2296.570980,-3997.112087,148.041188,-80440.027290
2296.573524,1036.288319,4145.153275,-80593.246390
2296.576067,7105.977043,3849.070898,-80286.808190
2296.578611,7254.018232,740.205942,-78601.398095
2296.581154,6217.729913,-1480.411884,-76762.768900
2296.583698,4145.153275,1480.411884,-76456.330700
2296.586242,1332.370696,444.123565,-78601.398095
2296.588785,2368.659014,5181.441594,-79827.150892
2296.591329,4441.235652,1776.494261,-81972.218286
2296.593873,8142.265362,5921.647536,-78907.836294
2296.596416,-1776.494261,-1184.329507,-79520.712692
2296.598960,-2220.617826,-1480.411884,-75690.235202
2296.601504,2220.617826,4589.276840,-76456.330700
2296.604047,5921.647536,-2516.700203,-81052.903688
2296.606591,-7550.100608,3404.947333,-78907.836294
2296.609139,-5181.441594,12583.501014,-79520.712692
2296.611687,-11843.295072,-5773.606348,-82125.437386
2296.614236,1480.411884,-148.041188,-77375.645298
2296.616784,-2516.700203,296.082377,-75230.577904
2296.619332,-3404.947333,-1332.370696,-80440.027290
2296.621880,-5477.523971,2960.823768,-77222.426198
2296.624428,-5773.606348,888.247130,-80286.808190
2296.626977,-12139.377449,5181.441594,-81206.122788
2296.629525,-148.041188,1036.288319,-79980.369991
2296.632073,-888.247130,2072.576638,-77069.207099
2296.634621,-1036.288319,0.000000,-76762.768900
2296.637170,-10658.965565,740.205942,-77682.083497
2296.639718,1628.453072,1480.411884,-79673.931792
2296.642266,-5181.441594,2516.700203,-80440.027290
2296.644814,-444.123565,2664.741391,-80133.589091
2296.647363,-444.123565,3701.029710,-77835.302597
2296.649911,-9918.759623,-1628.453072,-80286.808190
2296.652459,-7402.059420,740.205942,-78141.740796
2296.655007,-8438.347739,1036.288319,-78601.398095
2296.657555,-4145.153275,3701.029710,-77682.083497
2296.660104,-2960.823768,148.041188,-80899.684589
2296.662652,-3849.070898,2220.617826,-79214.274493
2296.665200,-9474.636058,2072.576638,-78294.959896
2296.667748,-1480.411884,-1184.329507,-78907.836294
2296.670297,-8586.388927,3997.112087,-77069.207099
2296.672845,2664.741391,-1628.453072,-79673.931792
2296.675393,-444.123565,1036.288319,-77069.207099
2296.677941,4293.194464,4145.153275,-80746.465489
2296.680490,5329.482782,-3552.988522,-81052.903688
2296.683038,7105.977043,2960.823768,-79061.055394
2296.685586,-5921.647536,8290.306550,-76609.549800
2296.688134,3404.947333,-7550.100608,-81512.560987
2296.690677,444.123565,6957.935855,-73391.948708
2296.693230,5181.441594,-6957.935855,-82431.875585
2296.695782,10362.883188,5773.606348,-76303.111601
2296.698334,6661.853478,2516.700203,-81818.999186
2296.700886,1036.288319,888.247130,-79214.274493
2296.703438,1480.411884,4145.153275,-78448.178995
2296.705990,2072.576638,-148.041188,-79980.369991
2296.708542,12287.418637,740.205942,-75230.577904
2296.711094,5625.565159,592.164754,-77835.302597
2296.713647,4441.235652,3552.988522,-79673.931792
2296.716199,-3108.864956,-1184.329507,-81972.218286
2296.718751,5181.441594,5181.441594,-77988.521696
2296.721303,2960.823768,2664.741391,-79061.055394
2296.723855,6365.771101,296.082377,-77222.426198
2296.726407,11251.130318,-2072.576638,-77222.426198
2296.728959,4145.153275,3701.029710,-77069.207099
2296.731511,1036.288319,1480.411884,-80133.589091
2296.734064,5033.400406,2960.823768,-81665.780087
2296.736616,3849.070898,3552.988522,-79214.274493
2296.739168,-592.164754,-2220.617826,-82278.656485
2296.741720,2664.741391,3552.988522,-74158.044206
2296.744272,-7550.100608,-6365.771101,-77988.521696
2296.746824,6217.729913,9030.512492,-77528.864398
2296.749376,3256.906145,-2960.823768,-81665.780087
2296.751929,-4737.318029,4145.153275,-79980.369991
2296.754481,-6217.729913,11251.130318,-78141.740796
2296.757033,-8734.430116,-8142.265362,-81665.780087
2296.759585,-296.082377,1480.411884,-74924.139704
2296.762137,3256.906145,3849.070898,-74770.920605
2296.764689,-7994.224174,444.123565,-80440.027290
2296.767241,-7994.224174,2664.741391,-80746.465489
2296.769793,-5181.441594,2072.576638,-79520.712692
2296.772346,-6809.894666,592.164754,-80593.246390
2296.774898,-740.205942,-148.041188,-79367.493593
2296.777450,-5921.647536,1776.494261,-75230.577904
2296.780002,-5329.482782,-296.082377,-79061.055394
2296.782554,-6217.729913,2664.741391,-78601.398095
2296.785106,-1776.494261,1776.494261,-81512.560987
2296.787658,-1332.370696,3997.112087,-79673.931792
2296.790210,-1332.370696,2960.823768,-77835.302597
2296.792765,-9918.759623,0.000000,-77988.521696
2296.795319,-10807.006753,-592.164754,-77682.083497
2296.797874,-9474.636058,2960.823768,-77222.426198
2296.800428,-3701.029710,2664.741391,-80440.027290
2296.802983,-4441.235652,296.082377,-80899.684589
2296.805537,-2368.659014,2812.782580,-79980.369991
2296.808091,-7846.182985,3701.029710,-78141.740796
2296.810646,-592.164754,-3256.906145,-78141.740796
2296.813200,-6365.771101,5625.565159,-77528.864398
2296.815755,-9622.677246,5033.400406,-78754.617194
2296.818309,2960.823768,-4589.276840,-82125.437386
2296.820863,10955.047942,9918.759623,-75843.454302
2296.823418,2812.782580,-3256.906145,-82585.094684
2296.825972,5329.482782,1628.453072,-77835.302597
2296.828527,-5181.441594,6809.894666,-76762.768900
2296.831081,1776.494261,-6365.771101,-81972.218286
2296.833635,4737.318029,7402.059420,-74617.701505
2296.836190,2072.576638,-4441.235652,-82431.875585
2296.838744,10955.047942,4145.153275,-77528.864398
2296.841299,3701.029710,6365.771101,-78754.617194
2296.843853,-1184.329507,-2368.659014,-80286.808190
2296.846408,1480.411884,1924.535449,-78601.398095
2296.848962,6365.771101,148.041188,-78601.398095
2296.851516,-2072.576638,1036.288319,-77835.302597
2296.854071,3256.906145,2516.700203,-77835.302597
2296.856625,-1184.329507,3997.112087,-79673.931792
2296.859180,6069.688724,0.000000,-80593.246390
2296.861734,592.164754,3256.906145,-78754.617194
2296.864288,5773.606348,444.123565,-79827.150892
2296.866843,8586.388927,-592.164754,-77069.207099
2296.869397,4145.153275,5477.523971,-76149.892501
2296.871952,2220.617826,888.247130,-80286.808190
2296.874506,4145.153275,5625.565159,-77375.645298
2296.877060,4737.318029,1332.370696,-80746.465489
2296.879615,5033.400406,148.041188,-81512.560987
2296.882169,5477.523971,1924.535449,-77222.426198
2296.884724,-3256.906145,-2220.617826,-77528.864398
2296.887278,1036.288319,5181.441594,-78141.740796
2296.889832,7994.224174,-2960.823768,-80899.684589
2296.892387,-8290.306550,5181.441594,-79214.274493
2296.894943,-2072.576638,11547.212695,-77528.864398
2296.897500,-6809.894666,-8586.388927,-82431.875585
2296.900057,5329.482782,1480.411884,-74924.139704
2296.902613,-5773.606348,1924.535449,-76149.892501
2296.905170,-6809.894666,888.247130,-80286.808190
2296.907726,-4145.153275,6069.688724,-77682.083497
2296.910283,-6513.812290,-592.164754,-81206.122788
2296.912840,-5329.482782,5625.565159,-78907.836294
2296.915396,-3552.988522,-4293.194464,-79980.369991
2296.917953,-3552.988522,2960.823768,-74924.139704
2296.920509,-1480.411884,-740.205942,-78294.959896
2296.923066,-6069.688724,2368.659014,-78601.398095
2296.925623,-2516.700203,3997.112087,-80440.027290
2296.928179,592.164754,1184.329507,-80746.465489
2296.930736,-4589.276840,3404.947333,-78601.398095
2296.933292,-5773.606348,1628.453072,-77222.426198
2296.935849,-8438.347739,-2072.576638,-76456.330700
2296.938406,-8586.388927,-592.164754,-77988.521696
2296.940962,-8586.388927,3108.864956,-79214.274493
2296.943519,-5329.482782,2072.576638,-80746.465489
2296.946075,-1924.535449,1184.329507,-79827.150892
2296.948632,-2368.659014,-444.123565,-78754.617194
2296.951189,-5921.647536,3701.029710,-75843.454302
2296.953745,-4441.235652,-740.205942,-79673.931792
2296.956302,-8290.306550,740.205942,-79214.274493
2296.958858,2368.659014,1184.329507,-80440.027290
2296.961415,11991.336260,4737.318029,-78141.740796
2296.963972,3404.947333,-148.041188,-80440.027290
2296.966528,5181.441594,1036.288319,-77528.864398
2296.969085,-8882.471304,5625.565159,-75690.235202
2296.971642,3256.906145,-5033.400406,-83504.409282
2296.974198,6661.853478,7105.977043,-75537.016103
2296.976755,5181.441594,-2072.576638,-81359.341888
2296.979311,9326.594869,4441.235652,-77682.083497
2296.981868,3849.070898,3404.947333,-77988.521696
2296.984425,1924.535449,592.164754,-79214.274493
2296.986981,5181.441594,2516.700203,-78294.959896
2296.989538,4145.153275,-1628.453072,-79980.369991
2296.992094,-2516.700203,4441.235652,-77682.083497
2296.994651,0.000000,296.082377,-78141.740796
2296.997162,1924.535449,3404.947333,-78601.398095
2296.999673,-148.041188,592.164754,-80286.808190
2297.002183,5625.565159,3997.112087,-78141.740796
2297.004694,6365.771101,-296.082377,-80286.808190
2297.007205,9326.594869,1776.494261,-77682.083497
2297.009716,7105.977043,296.082377,-77528.864398
2297.012227,-2368.659014,2664.741391,-78754.617194
2297.014738,10362.883188,2072.576638,-78907.836294
2297.017249,3256.906145,1036.288319,-79980.369991
2297.019760,2368.659014,444.123565,-80746.465489
2297.022270,5329.482782,4145.153275,-77682.083497
2297.024781,296.082377,-4885.359217,-77988.521696
2297.027292,6069.688724,1184.329507,-76609.549800
2297.029803,-6069.688724,6069.688724,-79367.493593
2297.032314,-6513.812290,-3256.906145,-82585.094684
2297.034825,-6365.771101,3849.070898,-79214.274493
2297.037336,-4145.153275,3997.112087,-79061.055394
2297.039846,444.123565,-6513.812290,-78907.836294
2297.042357,-1332.370696,5921.647536,-75383.797003
2297.044868,-5773.606348,1184.329507,-77069.207099
2297.047379,-11547.212695,2516.700203,-81512.560987
2297.049890,-1776.494261,1776.494261,-81052.903688
2297.052401,-3108.864956,1184.329507,-79673.931792
2297.054912,-3849.070898,148.041188,-78141.740796
2297.057422,296.082377,3849.070898,-74617.701505
2297.059933,-2960.823768,-1036.288319,-79367.493593
2297.062444,1628.453072,3552.988522,-79520.712692
2297.064955,-3552.988522,2220.617826,-82891.532884
2297.067466,1924.535449,3849.070898,-79673.931792
2297.069977,-6957.935855,1332.370696,-77375.645298
2297.072488,-8142.265362,-1184.329507,-77222.426198
2297.074998,-7254.018232,296.082377,-76915.987999
2297.077509,-7994.224174,444.123565,-78601.398095
2297.080020,296.082377,4145.153275,-80440.027290
2297.082531,-3108.864956,1776.494261,-80593.246390
2297.085042,-3701.029710,6661.853478,-77222.426198
2297.087553,-1776.494261,-1628.453072,-78294.959896
2297.090064,-5181.441594,2368.659014,-75690.235202
2297.092574,-3997.112087,592.164754,-80286.808190
2297.095085,-3404.947333,-6069.688724,-81665.780087
2297.097608,14508.036463,10066.800811,-78141.740796
2297.100131,2664.741391,-1480.411884,-81972.218286
2297.102654,5181.441594,3256.906145,-77375.645298
2297.105176,-4737.318029,8882.471304,-72625.853210
2297.107699,-296.082377,-9474.636058,-83964.066581
2297.110222,6809.894666,3552.988522,-76915.987999
2297.112745,6513.812290,-1628.453072,-82125.437386
2297.115267,12435.459826,2220.617826,-78601.398095
2297.117790,-888.247130,7698.141797,-77069.207099
2297.120313,-1480.411884,2664.741391,-78294.959896
2297.122836,3256.906145,296.082377,-77988.521696
2297.125358,1776.494261,-3552.988522,-81206.122788
2297.127881,9474.636058,1776.494261,-77835.302597
2297.130404,-3997.112087,-1332.370696,-78448.178995
2297.132927,-2960.823768,5625.565159,-78448.178995
2297.135449,5033.400406,1184.329507,-79827.150892
2297.137972,6513.812290,3849.070898,-79367.493593
2297.140495,9030.512492,-1184.329507,-80746.465489
2297.143018,8142.265362,-296.082377,-77375.645298
2297.145540,5921.647536,888.247130,-77069.207099
2297.148063,-444.123565,-592.164754,-77222.426198
2297.150586,1924.535449,7698.141797,-78448.178995
2297.153109,6069.688724,-592.164754,-83351.190182
2297.155631,4441.235652,1184.329507,-80286.808190
2297.158154,444.123565,-2812.782580,-77988.521696
2297.160677,5625.565159,3701.029710,-75843.454302
2297.163200,4589.276840,-296.082377,-76915.987999
2297.165722,-12287.418637,-1332.370696,-79214.274493
2297.168245,-2368.659014,11547.212695,-79214.274493
2297.170768,-10362.883188,-3997.112087,-84730.162079
2297.173291,9622.677246,-888.247130,-80593.246390
2297.175813,888.247130,4293.194464,-75077.358804
2297.178336,-7698.141797,-1924.535449,-76456.330700
2297.180859,-3997.112087,5329.482782,-73698.386908
2297.183382,-3849.070898,444.123565,-82431.875585
2297.185904,-3108.864956,888.247130,-83657.628382
2297.188427,-592.164754,-1776.494261,-83044.751983
2297.190950,-4589.276840,5329.482782,-75690.235202
2297.193473,592.164754,-296.082377,-76762.768900
2297.195995,-1628.453072,444.123565,-74617.701505
2297.198529,-148.041188,2812.782580,-78294.959896
2297.201062,-2812.782580,888.247130,-81512.560987
2297.203595,-5477.523971,2368.659014,-81052.903688
2297.206128,-11251.130318,-148.041188,-79827.150892
2297.208662,-11103.089130,5773.606348,-75537.016103
2297.211195,-5773.606348,-296.082377,-76149.892501
2297.213728,-3849.070898,148.041188,-78294.959896
2297.216261,-2072.576638,592.164754,-81052.903688
2297.218794,-5329.482782,1036.288319,-80440.027290
2297.221328,-6365.771101,5921.647536,-80286.808190
2297.223861,-3108.864956,-148.041188,-78141.740796
2297.226394,-2960.823768,7698.141797,-75996.673402
2297.228927,-4737.318029,-12731.542202,-81052.903688
2297.231461,8290.306550,11695.253884,-74924.139704
2297.233994,7846.182985,-1776.494261,-84117.285680
2297.236527,10066.800811,-1924.535449,-78754.617194
2297.239060,-8882.471304,9178.553681,-75383.797003
2297.241594,-4293.194464,1924.535449,-81818.999186
2297.244127,12139.377449,-740.205942,-79673.931792
2297.246660,11695.253884,1480.411884,-77528.864398
2297.249193,9622.677246,296.082377,-78907.836294
2297.251727,-1036.288319,2516.700203,-77375.645298
2297.254260,-296.082377,3849.070898,-77528.864398
2297.256793,4145.153275,888.247130,-80899.684589
2297.259326,-3552.988522,2072.576638,-80746.465489
2297.261860,5033.400406,-444.123565,-79827.150892
2297.264393,-1776.494261,-888.247130,-76762.768900
2297.266926,2812.782580,4737.318029,-75690.235202
2297.269459,2368.659014,740.205942,-79214.274493
2297.271992,12139.377449,4589.276840,-77682.083497
2297.274526,5773.606348,2812.782580,-81665.780087
2297.277059,3997.112087,-1628.453072,-81512.560987
2297.279592,3849.070898,2368.659014,-76149.892501
2297.282125,444.123565,-1036.288319,-78141.740796
2297.284659,8734.430116,2368.659014,-77682.083497
2297.287192,3404.947333,-296.082377,-79061.055394
2297.289725,740.205942,5921.647536,-78601.398095
2297.292258,5329.482782,5329.482782,-81052.903688
2297.294792,5921.647536,-3108.864956,-80746.465489
2297.297325,-6661.853478,3997.112087,-76762.768900
2297.299866,-9770.718434,1776.494261,-75690.235202
2297.302407,-9622.677246,-1776.494261,-78141.740796
2297.304948,296.082377,7550.100608,-79367.493593
2297.307489,3701.029710,-1628.453072,-82891.532884
2297.310029,0.000000,5921.647536,-79367.493593
2297.312570,-4885.359217,2516.700203,-76609.549800
2297.315111,-17320.819043,2368.659014,-77069.207099
2297.317652,-2812.782580,-148.041188,-79367.493593
2297.320193,148.041188,-740.205942,-79367.493593
2297.322734,-2960.823768,1628.453072,-79367.493593
2297.325275,-3997.112087,3701.029710,-79673.931792
2297.327816,148.041188,2960.823768,-78601.398095
2297.330357,-2664.741391,2960.823768,-78601.398095
2297.332898,-4145.153275,-2072.576638,-79673.931792
2297.335439,-444.123565,2368.659014,-76149.892501
2297.337979,-10066.800811,-5329.482782,-80593.246390
2297.340520,-9178.553681,2960.823768,-78141.740796
2297.343061,-6513.812290,3997.112087,-80133.589091
2297.345602,-1036.288319,740.205942,-79061.055394
2297.348143,-3256.906145,3849.070898,-79367.493593
2297.350684,-5773.606348,-2516.700203,-80133.589091
2297.353225,-8882.471304,3108.864956,-76609.549800
2297.355766,-1924.535449,-3552.988522,-78448.178995
2297.358307,-7994.224174,6661.853478,-75843.454302
2297.360848,0.000000,-4885.359217,-82585.094684
2297.363389,10214.842000,11547.212695,-76762.768900
2297.365929,5329.482782,-3108.864956,-85496.257577
2297.368470,8142.265362,148.041188,-77069.207099
2297.371011,-9770.718434,3701.029710,-74311.263306
2297.373552,-3849.070898,-296.082377,-78294.959896
2297.376093,9918.759623,592.164754,-78141.740796
2297.378634,8882.471304,2812.782580,-81206.122788
2297.381175,12287.418637,1776.494261,-81512.560987
2297.383716,-2812.782580,4885.359217,-79367.493593
2297.386257,-1776.494261,3552.988522,-76609.549800
2297.388798,2812.782580,-4145.153275,-77375.645298
2297.391339,6365.771101,2368.659014,-76149.892501
2297.393880,1036.288319,148.041188,-79367.493593
2297.396420,-3404.947333,-296.082377,-80286.808190
2297.398961,4145.153275,7254.018232,-78907.836294
2297.401509,3997.112087,1036.288319,-82431.875585
2297.404056,13027.624579,3701.029710,-76609.549800
2297.406604,11695.253884,-2960.823768,-77528.864398
2297.409151,-2220.617826,1036.288319,-77682.083497
2297.411699,8586.388927,296.082377,-79673.931792
2297.414246,7402.059420,-1332.370696,-81512.560987
2297.416794,1924.535449,5329.482782,-80286.808190
2297.419341,3552.988522,3108.864956,-80286.808190
2297.421889,3256.906145,-6957.935855,-78141.740796
2297.424436,148.041188,6661.853478,-75383.797003
2297.426984,1036.288319,-5181.441594,-80133.589091
2297.429532,-6957.935855,-1628.453072,-78294.959896
2297.432079,-7402.059420,13323.706956,-77988.521696
2297.434627,-6513.812290,-5329.482782,-84883.381178
2297.437174,8734.430116,2368.659014,-77988.521696
2297.439722,-6365.771101,4145.153275,-77988.521696
2297.442269,-6513.812290,-4145.153275,-79061.055394
2297.444817,-4737.318029,3701.029710,-74004.825107
2297.447364,-8290.306550,444.123565,-79980.369991
2297.449912,-8438.347739,2960.823768,-80133.589091
2297.452459,148.041188,-148.041188,-83964.066581
2297.455007,4293.194464,4589.276840,-75690.235202
2297.457554,-7105.977043,-2368.659014,-80440.027290
2297.460102,-1184.329507,2072.576638,-76303.111601
2297.462649,-1628.453072,1924.535449,-77528.864398
2297.465197,-2664.741391,592.164754,-80440.027290
2297.467744,-9474.636058,1628.453072,-79214.274493
2297.470292,-9622.677246,1332.370696,-80746.465489
2297.472839,-10362.883188,4441.235652,-77528.864398
2297.475387,-3108.864956,-2072.576638,-78907.836294
2297.477934,-3404.947333,4293.194464,-75996.673402
2297.480482,-5181.441594,-444.123565,-78907.836294
2297.483029,-6513.812290,3552.988522,-77988.521696
2297.485577,-6661.853478,148.041188,-81818.999186
2297.488124,-4293.194464,7846.182985,-77835.302597
2297.490672,0.000000,-6365.771101,-81359.341888
2297.493219,10066.800811,10214.842000,-75230.577904
2297.495767,5773.606348,-6661.853478,-81665.780087
2297.498314,7994.224174,2812.782580,-76762.768900
2297.500862,-888.247130,7402.059420,-75690.235202
2297.503372,-1924.535449,-1628.453072,-83197.971083
2297.505881,5773.606348,3108.864956,-77375.645298
2297.508391,8734.430116,-888.247130,-81818.999186
2297.510901,13471.748144,2960.823768,-77069.207099
2297.513410,296.082377,-2220.617826,-79980.369991
2297.515920,4441.235652,4589.276840,-76149.892501
2297.518430,4293.194464,2220.617826,-78141.740796
2297.520939,-296.082377,1184.329507,-80593.246390
2297.523449,9622.677246,5773.606348,-77988.521696
2297.525958,1036.288319,1332.370696,-79367.493593
2297.528468,296.082377,148.041188,-78294.959896
2297.530978,6069.688724,1776.494261,-78141.740796
2297.533487,12287.418637,1924.535449,-76762.768900
2297.535997,6661.853478,0.000000,-80440.027290
2297.538507,7994.224174,3108.864956,-78141.740796
2297.541016,4737.318029,740.205942,-80286.808190
2297.543526,-1776.494261,1480.411884,-79827.150892
2297.546036,3849.070898,0.000000,-77528.864398
2297.548545,5625.565159,2664.741391,-77375.645298
2297.551055,2664.741391,-4441.235652,-79061.055394
2297.553565,6217.729913,0.000000,-79673.931792
2297.556074,-3997.112087,5625.565159,-78907.836294
2297.558584,-7846.182985,-2368.659014,-80440.027290
2297.561094,-9622.677246,5033.400406,-77222.426198
2297.563603,-2368.659014,3404.947333,-80286.808190
2297.566113,7105.977043,-5773.606348,-78907.836294
2297.568622,-3108.864956,6365.771101,-75996.673402
2297.571132,-6217.729913,-2368.659014,-79214.274493
2297.573642,-12879.583391,3849.070898,-78141.740796
2297.576151,-3997.112087,3552.988522,-80440.027290
2297.578661,-1924.535449,1480.411884,-79520.712692
2297.581171,-2812.782580,-1184.329507,-80133.589091
2297.583680,1184.329507,2664.741391,-75383.797003
2297.586190,-3108.864956,-2368.659014,-79214.274493
2297.588700,-1184.329507,2516.700203,-77375.645298
2297.591209,-2368.659014,740.205942,-81206.122788
2297.593719,-4441.235652,2220.617826,-79980.369991
2297.596229,-9326.594869,2516.700203,-79214.274493
2297.598738,-9474.636058,444.123565,-78907.836294
2297.601248,-9770.718434,3997.112087,-75996.673402
2297.603771,-296.082377,1184.329507,-78141.740796
2297.606294,-1776.494261,-148.041188,-79520.712692
2297.608817,-2664.741391,2812.782580,-80286.808190
2297.611341,-10066.800811,4589.276840,-79214.274493
2297.613864,-3849.070898,444.123565,-79367.493593
2297.616387,-5625.565159,-5181.441594,-78448.178995
2297.618910,14656.077652,8142.265362,-75996.673402
2297.621433,4145.153275,-6217.729913,-82585.094684
2297.623956,8882.471304,2072.576638,-79367.493593
2297.626480,-148.041188,10955.047942,-76303.111601
2297.629003,-6513.812290,-10214.842000,-85802.695776
2297.631526,7994.224174,10955.047942,-75383.797003
2297.634049,8142.265362,-1480.411884,-80440.027290
2297.636572,11399.171507,-148.041188,-77988.521696
2297.639096,1776.494261,3701.029710,-79061.055394
2297.641619,1184.329507,1628.453072,-79673.931792
2297.644142,2812.782580,2664.741391,-80133.589091
2297.646665,2664.741391,1776.494261,-79214.274493
2297.649188,3552.988522,3256.906145,-77069.207099
2297.651711,444.123565,-2960.823768,-78754.617194
2297.654235,1924.535449,4293.194464,-76915.987999
2297.656758,6513.812290,1924.535449,-80286.808190
2297.659281,14063.912898,2516.700203,-79520.712692
2297.661804,5181.441594,2072.576638,-79520.712692
2297.664327,5773.606348,2368.659014,-78754.617194
2297.666850,7105.977043,1036.288319,-78141.740796
2297.669374,1628.453072,-148.041188,-79214.274493
2297.671897,3108.864956,888.247130,-78601.398095
2297.674420,4737.318029,2072.576638,-78601.398095
2297.676943,1776.494261,4441.235652,-79980.369991
2297.679466,11399.171507,-4293.194464,-80440.027290
2297.681990,-11991.336260,5477.523971,-75843.454302
2297.684513,-8586.388927,7402.059420,-77069.207099
2297.687036,-9474.636058,-8290.306550,-80746.465489
2297.689559,6809.894666,5921.647536,-77069.207099
2297.692082,-1924.535449,2516.700203,-79214.274493
2297.694605,-5033.400406,1036.288319,-80593.246390
2297.697129,-7402.059420,4145.153275,-75230.577904
2297.699652,-14656.077652,-888.247130,-80593.246390
2297.702175,-1628.453072,740.205942,-78448.178995
2297.704708,-2812.782580,-1776.494261,-80440.027290
2297.707242,1628.453072,1924.535449,-79061.055394
2297.709777,-5625.565159,1184.329507,-78601.398095
2297.712312,-1332.370696,1184.329507,-79367.493593
2297.714846,2072.576638,2960.823768,-78141.740796
2297.717381,-5181.441594,-1480.411884,-80899.684589
2297.719916,-9326.594869,1332.370696,-77222.426198
2297.722450,-13323.706956,-1776.494261,-80133.589091
2297.724985,-11843.295072,3701.029710,-77528.864398
2297.727520,-4293.194464,3552.988522,-78907.836294
2297.730054,-4737.318029,1036.288319,-78294.959896
2297.732589,0.000000,1924.535449,-79367.493593
2297.735124,-11399.171507,3701.029710,-79673.931792
2297.737658,-1332.370696,-4589.276840,-79980.369991
2297.740193,-8142.265362,6365.771101,-76303.111601
2297.742728,6957.935855,2072.576638,-79980.369991
2297.745262,11695.253884,444.123565,-77988.521696
2297.747797,7254.018232,6661.853478,-80593.246390
2297.750332,3997.112087,1332.370696,-78754.617194
2297.752866,-6957.935855,-3108.864956,-79367.493593
2297.755401,2368.659014,7105.977043,-76456.330700
2297.757936,4589.276840,-7254.018232,-81359.341888
2297.760470,12583.501014,2960.823768,-78294.959896
2297.763005,10214.842000,6365.771101,-78448.178995
2297.765540,-2368.659014,-2368.659014,-81972.218286
2297.768074,7550.100608,6513.812290,-76456.330700
2297.770609,1184.329507,-2368.659014,-80133.589091
2297.773144,14359.995275,2960.823768,-75843.454302
2297.775679,444.123565,1480.411884,-79367.493593
2297.778213,-1332.370696,-1480.411884,-79980.369991
2297.780748,14508.036463,5477.523971,-77375.645298
2297.783283,8290.306550,1184.329507,-81972.218286
2297.785817,6661.853478,2960.823768,-79520.712692
2297.788352,9770.718434,-888.247130,-78141.740796
2297.790887,6957.935855,1924.535449,-75690.235202
2297.793421,4441.235652,592.164754,-80133.589091
2297.795956,-1036.288319,-444.123565,-79520.712692
2297.798491,6069.688724,2516.700203,-80133.589091
2297.801025,6365.771101,7846.182985,-80286.808190
2297.803560,10214.842000,-4293.194464,-80593.246390
2297.806063,-10510.924376,4885.359217,-75537.016103
2297.808565,-11251.130318,592.164754,-77835.302597
2297.811068,-9474.636058,296.082377,-76762.768900
2297.813571,-1924.535449,2664.741391,-81206.122788
2297.816074,8882.471304,3701.029710,-79673.931792
2297.818577,-7254.018232,1480.411884,-81206.122788
2297.821079,-4145.153275,3552.988522,-75843.454302
2297.823582,-15988.448347,3404.947333,-76609.549800
2297.826085,-5477.523971,-2072.576638,-81512.560987
2297.828588,4589.276840,1480.411884,-76915.987999
2297.831090,-5181.441594,-296.082377,-80746.465489
2297.833593,-3701.029710,2368.659014,-77682.083497
2297.836096,-2072.576638,2072.576638,-79214.274493
2297.838599,-3552.988522,3256.906145,-78294.959896
2297.841102,-4737.318029,-3404.947333,-81665.780087
2297.843604,-8586.388927,2220.617826,-75996.673402
2297.846107,-17764.942608,444.123565,-78907.836294
2297.848610,-7550.100608,-148.041188,-79367.493593
2297.851113,-888.247130,3256.906145,-78601.398095
2297.853615,-4885.359217,1332.370696,-79827.150892
2297.856118,888.247130,3108.864956,-79214.274493
2297.858621,-6365.771101,1776.494261,-78294.959896
2297.861124,-11399.171507,148.041188,-77375.645298
2297.863627,-2220.617826,888.247130,-78141.740796
2297.866129,13619.789333,4737.318029,-76609.549800
2297.868632,8142.265362,-1036.288319,-82891.532884
2297.871135,6069.688724,2072.576638,-78907.836294
2297.873638,3404.947333,7994.224174,-77375.645298
2297.876140,-5033.400406,-5773.606348,-81972.218286
2297.878643,9326.594869,2960.823768,-74770.920605
2297.881146,6661.853478,2072.576638,-78141.740796
2297.883649,13915.871710,-2072.576638,-80440.027290
2297.886152,5625.565159,7698.141797,-76762.768900
2297.888654,0.000000,-1332.370696,-83044.751983
2297.891157,7698.141797,5033.400406,-76762.768900
2297.893660,3108.864956,-740.205942,-79061.055394
2297.896163,6809.894666,1924.535449,-76762.768900
2297.898665,-3997.112087,-1184.329507,-79214.274493
2297.901168,3997.112087,4589.276840,-78294.959896
2297.903671,9770.718434,2220.617826,-80899.684589
2297.906190,6661.853478,4293.194464,-80899.684589
2297.908709,10658.965565,740.205942,-80286.808190
2297.911228,4737.318029,1776.494261,-76456.330700
2297.913746,-1184.329507,-1184.329507,-77375.645298
2297.916265,296.082377,740.205942,-78141.740796
2297.918784,6069.688724,7402.059420,-78294.959896
2297.921303,6809.894666,-1628.453072,-83657.628382
2297.923822,9030.512492,5033.400406,-77069.207099
2297.926341,-3997.112087,2368.659014,-78294.959896
2297.928860,-9178.553681,-4293.194464,-77988.521696
2297.931379,-11251.130318,5921.647536,-74924.139704
2297.933897,-4589.276840,0.000000,-82431.875585
2297.936416,5477.523971,-2516.700203,-81052.903688
2297.938935,-5921.647536,10510.924376,-77528.864398
2297.941454,-8586.388927,-1776.494261,-81512.560987
2297.943973,-11991.336260,3701.029710,-75690.235202
2297.946492,-4145.153275,2368.659014,-77069.207099
2297.949011,-1776.494261,-1924.535449,-79673.931792
2297.951530,3552.988522,-296.082377,-81818.999186
2297.954048,-2664.741391,4737.318029,-77682.083497
2297.956567,-4737.318029,1776.494261,-79673.931792
2297.959086,-1036.288319,6513.812290,-77682.083497
2297.961605,-4441.235652,-740.205942,-79827.150892
2297.964124,-7105.977043,-2368.659014,-77835.302597
2297.966643,-9622.677246,-444.123565,-77682.083497
2297.969162,-16580.613101,148.041188,-79214.274493
2297.971680,-1924.535449,888.247130,-80286.808190
2297.974199,1628.453072,3997.112087,-77069.207099
2297.976718,-3256.906145,5329.482782,-78907.836294
2297.979237,-6217.729913,-2368.659014,-80593.246390
2297.981756,-7254.018232,296.082377,-76149.892501
2297.984275,-11547.212695,-3552.988522,-79061.055394
2297.986806,11843.295072,6513.812290,-76762.768900
2297.989338,8586.388927,-3108.864956,-82738.313784
2297.991870,7698.141797,7550.100608,-79520.712692
2297.994401,296.082377,7698.141797,-77988.521696
2297.996933,-6661.853478,-10362.883188,-83504.409282
2297.999465,12731.542202,5773.606348,-75077.358804
2298.001996,8290.306550,-4441.235652,-79061.055394
2298.004528,7550.100608,2516.700203,-77988.521696
2298.007060,9474.636058,7846.182985,-77988.521696
2298.009591,-444.123565,-148.041188,-81665.780087
2298.012123,5033.400406,4441.235652,-80133.589091
2298.014655,0.000000,-2072.576638,-78907.836294
2298.017186,1776.494261,3256.906145,-75230.577904
2298.019718,888.247130,-3404.947333,-77835.302597
2298.022250,5033.400406,3404.947333,-75537.016103
2298.024781,7254.018232,3997.112087,-81818.999186
2298.027313,8438.347739,7254.018232,-79980.369991
2298.029845,7994.224174,-888.247130,-80133.589091
2298.032376,444.123565,2516.700203,-76303.111601
2298.034908,444.123565,-1480.411884,-77069.207099
2298.037440,-888.247130,-1036.288319,-77835.302597
2298.039971,5329.482782,-148.041188,-78907.836294
2298.042503,3552.988522,9326.594869,-80899.684589
2298.045035,9918.759623,-2368.659014,-83504.409282
2298.047566,-9326.594869,2072.576638,-77835.302597
2298.050098,-13619.789333,8290.306550,-76456.330700
2298.052629,-12287.418637,-6957.935855,-78907.836294
2298.055161,11251.130318,-3108.864956,-78754.617194
2298.057693,1184.329507,10658.965565,-76762.768900
2298.060224,-6365.771101,-6217.729913,-85955.914876
2298.062756,-8142.265362,8290.306550,-74770.920605
2298.065288,-13175.665768,1332.370696,-80899.684589
2298.067819,-4589.276840,-148.041188,-78141.740796
2298.070351,2812.782580,0.000000,-76149.892501
2298.072883,-2812.782580,888.247130,-77682.083497
2298.075414,-2516.700203,1184.329507,-78601.398095
2298.077946,-5921.647536,4441.235652,-80440.027290
2298.080478,-5625.565159,3108.864956,-80593.246390
2298.083009,-7105.977043,1480.411884,-80286.808190
2298.085541,-11991.336260,592.164754,-76149.892501
2298.088083,-10807.006753,-1924.535449,-77222.426198
2298.090625,-3997.112087,1628.453072,-76915.987999
2298.093167,-2220.617826,-296.082377,-79673.931792
2298.095709,1776.494261,5033.400406,-80593.246390
2298.098250,-5921.647536,2664.741391,-82431.875585
2298.100792,-4145.153275,1480.411884,-78601.398095
2298.103334,-8734.430116,-1776.494261,-77375.645298
2298.105876,11547.212695,6809.894666,-72779.072310
2298.108418,8438.347739,-1480.411884,-79520.712692
2298.110960,12139.377449,1184.329507,-79827.150892
2298.113502,296.082377,11251.130318,-78141.740796
2298.116044,-2960.823768,-11103.089130,-87028.448573
2298.118585,7254.018232,10955.047942,-74004.825107
2298.121127,3552.988522,-6365.771101,-80133.589091
2298.123669,8438.347739,1776.494261,-74311.263306
2298.126211,10066.800811,3997.112087,-77069.207099
2298.128753,592.164754,-296.082377,-80746.465489
2298.131295,3849.070898,1480.411884,-83351.190182
2298.133837,-1184.329507,3552.988522,-81206.122788
2298.136379,4145.153275,740.205942,-79367.493593
2298.138921,740.205942,-1480.411884,-75843.454302
2298.141462,7550.100608,3849.070898,-74924.139704
2298.144004,11251.130318,296.082377,-78754.617194
2298.146546,8586.388927,2072.576638,-80899.684589
2298.149088,12583.501014,4145.153275,-81665.780087
2298.151630,1776.494261,2516.700203,-79980.369991
2298.154172,-888.247130,2072.576638,-78294.959896
2298.156714,2812.782580,0.000000,-78294.959896
2298.159256,5033.400406,-5329.482782,-76149.892501
2298.161797,7105.977043,8882.471304,-77375.645298
2298.164339,296.082377,-3256.906145,-84270.504780
2298.166881,-9178.553681,3552.988522,-79673.931792
2298.169423,-12139.377449,12435.459826,-79061.055394
2298.171965,-9178.553681,-8734.430116,-80593.246390
2298.174507,5773.606348,0.000000,-74770.920605
2298.177049,-888.247130,5033.400406,-74464.482406
2298.179591,-3997.112087,-2516.700203,-81512.560987
2298.182133,-9178.553681,4441.235652,-77835.302597
2298.184674,-8142.265362,2664.741391,-82278.656485
2298.187216,-5921.647536,3997.112087,-79061.055394
2298.189767,-5033.400406,-2220.617826,-79673.931792
2298.192317,592.164754,2664.741391,-73391.948708
2298.194868,-2072.576638,-1924.535449,-79367.493593
2298.197418,-4293.194464,2368.659014,-77528.864398
2298.199969,-3404.947333,3997.112087,-80899.684589
2298.202519,-7846.182985,888.247130,-82125.437386
2298.205070,-9918.759623,6217.729913,-77375.645298
2298.207620,-8734.430116,-1332.370696,-79520.712692
2298.210171,-1480.411884,-4293.194464,-75690.235202
2298.212721,444.123565,-148.041188,-77528.864398
2298.215272,-6217.729913,5625.565159,-79061.055394
2298.217822,-4885.359217,-1184.329507,-81206.122788
2298.220372,-9326.594869,12435.459826,-77988.521696
2298.222923,-740.205942,-9030.512492,-84423.723880
2298.225473,12583.501014,6513.812290,-73698.386908
2298.228024,9178.553681,2220.617826,-78754.617194
2298.230574,7698.141797,-5921.647536,-77222.426198
2298.233125,-6661.853478,7550.100608,-74924.139704
2298.235675,1776.494261,6365.771101,-79827.150892
2298.238226,1184.329507,1332.370696,-82278.656485
2298.240776,11103.089130,1480.411884,-79673.931792
2298.243327,8142.265362,2664.741391,-76303.111601
2298.245877,7105.977043,-2516.700203,-78294.959896
2298.248428,2812.782580,148.041188,-75690.235202
2298.250978,148.041188,-1924.535449,-81512.560987
2298.253529,888.247130,4145.153275,-80286.808190
2298.256079,740.205942,1036.288319,-81359.341888
2298.258630,7698.141797,4441.235652,-78141.740796
2298.261180,8142.265362,2960.823768,-77528.864398
2298.263731,5773.606348,740.205942,-76303.111601
2298.266281,10214.842000,740.205942,-78601.398095
2298.268831,6365.771101,1776.494261,-78448.178995
2298.271382,-3108.864956,3997.112087,-81818.999186
2298.273932,2220.617826,1924.535449,-81052.903688
2298.276483,8882.471304,2516.700203,-77069.207099
2298.279033,3849.070898,5329.482782,-78601.398095
2298.281584,7402.059420,-4737.318029,-77988.521696
2298.284134,-11103.089130,4589.276840,-76609.549800
2298.286685,-7846.182985,-296.082377,-80746.465489
2298.289235,-11843.295072,-8438.347739,-83657.628382
2298.291793,7254.018232,5625.565159,-78601.398095
2298.294351,-740.205942,7105.977043,-77528.864398
2298.296909,444.123565,-3108.864956,-80899.684589
2298.299466,-4293.194464,6809.894666,-72779.072310
2298.302024,-15396.283594,-2664.741391,-80440.027290
2298.304582,-2072.576638,-296.082377,-78294.959896
2298.307140,1036.288319,2516.700203,-80286.808190
2298.309697,296.082377,1036.288319,-79980.369991
2298.312255,2516.700203,6513.812290,-77835.302597
2298.314813,-3849.070898,1036.288319,-78448.178995
2298.317371,-4293.194464,-1184.329507,-77682.083497
2298.319929,-10510.924376,444.123565,-79061.055394
2298.322486,-9178.553681,296.082377,-78448.178995
2298.325044,-8882.471304,4145.153275,-79520.712692
2298.327602,-1036.288319,-2072.576638,-80593.246390
2298.330160,1480.411884,1924.535449,-79827.150892
2298.332717,-3701.029710,5625.565159,-78141.740796
2298.335275,-8142.265362,-5329.482782,-79980.369991
2298.337833,-296.082377,7550.100608,-76149.892501
2298.340391,-3256.906145,-6661.853478,-79980.369991
2298.342948,15988.448347,-888.247130,-80899.684589
2298.345506,10658.965565,9622.677246,-78754.617194
2298.348064,5625.565159,-4145.153275,-81665.780087
2298.350622,-4145.153275,4885.359217,-75843.454302
2298.353180,4293.194464,3404.947333,-79061.055394
2298.355737,2812.782580,-4737.318029,-78907.836294
2298.358295,11399.171507,1480.411884,-78601.398095
2298.360853,7846.182985,5033.400406,-76762.768900
2298.363411,6217.729913,1628.453072,-81206.122788
2298.365968,7105.977043,3552.988522,-77988.521696
2298.368526,1036.288319,-1480.411884,-81512.560987
2298.371084,-2516.700203,2516.700203,-76609.549800
2298.373642,3256.906145,-1184.329507,-78448.178995
2298.376199,3997.112087,2516.700203,-77682.083497
2298.378757,11991.336260,3256.906145,-78601.398095
2298.381315,8142.265362,2072.576638,-81052.903688
2298.383873,3997.112087,888.247130,-81972.218286
2298.386431,3701.029710,2664.741391,-79367.493593
2298.388988,-2368.659014,-1776.494261,-78448.178995
2298.391546,5773.606348,740.205942,-77375.645298
2298.394110,5625.565159,-592.164754,-75843.454302
2298.396674,4885.359217,1628.453072,-80440.027290
2298.399237,-1924.535449,8882.471304,-79061.055394
2298.401801,-10066.800811,-4737.318029,-84270.504780
2298.404365,-10214.842000,9918.759623,-76303.111601
2298.406929,-7846.182985,-6069.688724,-81052.903688
2298.409493,3256.906145,-2516.700203,-75537.016103
2298.412056,-4441.235652,6513.812290,-76303.111601
2298.414620,-4145.153275,-740.205942,-81052.903688
2298.417184,-8882.471304,6513.812290,-78754.617194
2298.419748,-9030.512492,-1184.329507,-82891.532884
2298.422311,-6069.688724,740.205942,-77682.083497
2298.424875,-888.247130,-888.247130,-77988.521696
2298.427439,-888.247130,2072.576638,-74464.482406
2298.430003,2516.700203,296.082377,-79061.055394
2298.432567,-4737.318029,6957.935855,-77988.521696
2298.435130,-8290.306550,0.000000,-82891.532884
2298.437694,-10658.965565,3997.112087,-79827.150892
2298.440258,-9622.677246,444.123565,-79520.712692
2298.442822,-4737.318029,-8142.265362,-77222.426198
2298.445385,-148.041188,3404.947333,-74311.263306
2298.447949,-5329.482782,1924.535449,-81052.903688
2298.450513,-7254.018232,-5477.523971,-83657.628382
2298.453077,-7698.141797,11103.089130,-78141.740796
2298.455640,-3849.070898,-2960.823768,-82125.437386
2298.458204,15544.324782,-148.041188,-77835.302597
2298.460768,7994.224174,5625.565159,-74924.139704
2298.463332,4737.318029,-4589.276840,-78754.617194
2298.465896,-4589.276840,7698.141797,-75537.016103
2298.468459,6069.688724,-444.123565,-83810.847481
2298.471023,4737.318029,3404.947333,-80899.684589
2298.473587,9622.677246,444.123565,-80440.027290
2298.476151,8734.430116,2664.741391,-74617.701505
2298.478714,3997.112087,-740.205942,-78448.178995
2298.481278,740.205942,2368.659014,-75537.016103
2298.483842,3108.864956,-444.123565,-81972.218286
2298.486406,-2516.700203,4293.194464,-79827.150892
2298.488970,2812.782580,444.123565,-81665.780087
2298.491533,9474.636058,5773.606348,-77375.645298
2298.494097,11103.089130,-148.041188,-77835.302597
2298.496665,18209.066173,-5773.606348,-78754.617194
2298.499232,1628.453072,11103.089130,-75077.358804
2298.501800,1184.329507,1332.370696,-82585.094684
2298.504367,740.205942,-2368.659014,-79214.274493
2298.506935,5773.606348,9770.718434,-77375.645298
2298.509502,2072.576638,-1036.288319,-80899.684589
2298.512070,13175.665768,-3997.112087,-77682.083497
2298.514637,-10362.883188,10362.883188,-73545.167808
2298.517205,-9030.512492,-7550.100608,-84270.504780
2298.519772,-8438.347739,7254.018232,-74617.701505
2298.522340,-7254.018232,-296.082377,-84270.504780
2298.524907,3701.029710,-2516.700203,-80593.246390
2298.527475,-2220.617826,1776.494261,-79214.274493
2298.530043,-5181.441594,4885.359217,-75537.016103
2298.532610,-7698.141797,-3701.029710,-80440.027290
2298.535178,-5773.606348,3404.947333,-77682.083497
2298.537745,-5625.565159,-444.123565,-79827.150892
2298.540313,-1480.411884,3552.988522,-78907.836294
2298.542880,-740.205942,4885.359217,-78141.740796
2298.545448,-592.164754,1776.494261,-80440.027290
2298.548015,-7402.059420,2960.823768,-76915.987999
2298.550583,-12287.418637,-148.041188,-81052.903688
2298.553150,-9178.553681,1776.494261,-76303.111601
2298.555718,-7994.224174,148.041188,-79367.493593
2298.558285,-6217.729913,3108.864956,-78294.959896
2298.560853,5773.606348,-1332.370696,-80593.246390
2298.563420,-8586.388927,7698.141797,-77222.426198
2298.565988,-7698.141797,444.123565,-79827.150892
2298.568556,-8290.306550,2960.823768,-76762.768900
2298.571123,1776.494261,-1036.288319,-80133.589091
2298.573691,15396.283594,-1628.453072,-78601.398095
2298.576258,7105.977043,5625.565159,-78141.740796
2298.578826,2960.823768,7105.977043,-77682.083497
2298.581393,-740.205942,-4441.235652,-82431.875585
2298.583961,3849.070898,10658.965565,-75996.673402
2298.586528,2220.617826,-6513.812290,-81665.780087
2298.589096,9918.759623,-1924.535449,-76915.987999
2298.591663,7698.141797,4441.235652,-75996.673402
2298.594231,2220.617826,-2812.782580,-82431.875585
2298.596798,2220.617826,5181.441594,-77375.645298
2298.599369,4145.153275,740.205942,-82738.313784
2298.601940,-148.041188,3701.029710,-76762.768900
2298.604511,-592.164754,1332.370696,-77835.302597
2298.607082,10807.006753,592.164754,-77528.864398
2298.609652,14359.995275,-148.041188,-78601.398095
2298.612223,6069.688724,7698.141797,-78601.398095
2298.614794,4145.153275,-888.247130,-83197.971083
2298.617365,-888.247130,6957.935855,-76762.768900
2298.619936,1776.494261,1628.453072,-80286.808190
2298.622507,2812.782580,-5477.523971,-77222.426198
2298.625077,11251.130318,7698.141797,-74617.701505
2298.627648,-592.164754,-2072.576638,-81512.560987
2298.630219,-7550.100608,-148.041188,-80286.808190
2298.632790,-9030.512492,11103.089130,-78294.959896
2298.635361,-8290.306550,-1184.329507,-81818.999186
2298.637932,4589.276840,-4589.276840,-77835.302597
2298.640502,-148.041188,5625.565159,-74617.701505
2298.643073,-6809.894666,-3849.070898,-78448.178995
2298.645644,-6809.894666,7254.018232,-77375.645298
2298.648215,-6809.894666,-1184.329507,-83351.190182
2298.650786,1036.288319,3997.112087,-79980.369991
2298.653356,-8438.347739,1332.370696,-79214.274493
2298.655927,-592.164754,1924.535449,-77222.426198
2298.658498,148.041188,740.205942,-76915.987999
2298.661069,-4441.235652,592.164754,-79061.055394
2298.663640,-12139.377449,-296.082377,-80593.246390
2298.666211,-18801.230927,4885.359217,-78907.836294
2298.668781,-8734.430116,3552.988522,-80440.027290
2298.671352,-4589.276840,-1332.370696,-78907.836294
2298.673923,592.164754,-1776.494261,-77222.426198
2298.676494,-7994.224174,6365.771101,-77222.426198
2298.679065,-5773.606348,-3997.112087,-79980.369991
2298.681635,-8882.471304,9474.636058,-77682.083497
2298.684206,1480.411884,-2516.700203,-82431.875585
2298.686777,13175.665768,-5181.441594,-79827.150892
2298.689348,6069.688724,9030.512492,-76456.330700
2298.691919,1628.453072,-4293.194464,-79214.274493
2298.694490,444.123565,444.123565,-76762.768900
2298.697060,3256.906145,5625.565159,-78448.178995
2298.699631,5181.441594,888.247130,-81359.341888
2298.702197,12583.501014,1184.329507,-79214.274493
2298.704770,-740.205942,2812.782580,-76915.987999
2298.707343,2220.617826,1036.288319,-78448.178995
2298.709915,148.041188,1036.288319,-77988.521696
2298.712488,9030.512492,-4145.153275,-81052.903688
2298.715060,6069.688724,6661.853478,-77835.302597
2298.717633,-296.082377,2812.782580,-79980.369991
2298.720205,6957.935855,3552.988522,-77835.302597
2298.722778,15248.242405,-148.041188,-78907.836294
2298.725350,2812.782580,1776.494261,-79980.369991
2298.727923,5477.523971,0.000000,-79520.712692
2298.730496,1628.453072,1628.453072,-77682.083497
2298.733068,3108.864956,4885.359217,-79214.274493
2298.735641,1776.494261,-4885.359217,-80133.589091
2298.738213,7698.141797,9474.636058,-75996.673402
2298.740786,-3256.906145,1924.535449,-79520.712692
2298.743358,-11991.336260,-2960.823768,-80440.027290
2298.745931,-10214.842000,9326.594869,-77682.083497
2298.748503,-5033.400406,-5625.565159,-81972.218286
2298.751076,5329.482782,-888.247130,-76456.330700
2298.753649,-9030.512492,6957.935855,-75996.673402
2298.756221,-6957.935855,-1628.453072,-80593.246390
2298.758794,-9326.594869,4885.359217,-77375.645298
2298.761366,-6365.771101,0.000000,-81818.999186
2298.763939,-4589.276840,1332.370696,-78754.617194
2298.766511,-4293.194464,1184.329507,-77528.864398
2298.769084,-6661.853478,3552.988522,-76303.111601
2298.771656,1184.329507,2516.700203,-78141.740796
2298.774229,-5921.647536,1776.494261,-79827.150892
2298.776802,-10955.047942,-296.082377,-81818.999186
2298.779374,-8438.347739,5033.400406,-78294.959896
2298.781947,-8734.430116,-1776.494261,-79520.712692
2298.784519,-6217.729913,2664.741391,-76456.330700
2298.787092,444.123565,-888.247130,-78294.959896
2298.789664,-6661.853478,1184.329507,-78448.178995
2298.792237,-3997.112087,7994.224174,-79827.150892
2298.794809,-8142.265362,-2664.741391,-81206.122788
2298.797382,13175.665768,4589.276840,-78294.959896
2298.799955,8438.347739,-1628.453072,-78294.959896
2298.802527,6365.771101,-1184.329507,-77682.083497
2298.805101,-2072.576638,9622.677246,-74924.139704
2298.807675,-1332.370696,-8290.306550,-83964.066581
2298.810249,10362.883188,6661.853478,-78141.740796
2298.812823,6957.935855,888.247130,-81359.341888
2298.815397,11547.212695,2516.700203,-77682.083497
2298.817971,1776.494261,3256.906145,-75077.358804
2298.820545,4293.194464,-888.247130,-77988.521696
2298.823119,3256.906145,1036.288319,-81052.903688
2298.825693,6365.771101,-592.164754,-81206.122788
2298.828267,3108.864956,2220.617826,-78294.959896
2298.830841,7698.141797,4885.359217,-77835.302597
2298.833416,6513.812290,2220.617826,-77528.864398
2298.835990,16284.530724,592.164754,-80133.589091
2298.838564,8586.388927,1184.329507,-77682.083497
2298.841138,-1628.453072,148.041188,-80133.589091
2298.843712,-1184.329507,2220.617826,-79520.712692
2298.846286,6513.812290,-4589.276840,-79520.712692
2298.848860,9622.677246,8734.430116,-75690.235202
2298.851434,1332.370696,-2072.576638,-80440.027290
2298.854008,-11843.295072,1184.329507,-77528.864398
2298.856582,-13619.789333,7105.977043,-79827.150892
2298.859156,-4589.276840,-7698.141797,-81512.560987
2298.861730,8438.347739,1184.329507,-77222.426198
2298.864304,-9178.553681,5033.400406,-76762.768900
2298.866878,-7105.977043,-740.205942,-78754.617194
2298.869452,-14211.954086,2664.741391,-78754.617194
2298.872026,-2812.782580,0.000000,-81359.341888
2298.874600,-3849.070898,2960.823768,-79367.493593
2298.877174,444.123565,1332.370696,-77835.302597
2298.879748,-6513.812290,1628.453072,-77069.207099
2298.882322,2220.617826,1924.535449,-78754.617194
2298.884896,-9770.718434,1332.370696,-78907.836294
2298.887470,-11399.171507,-888.247130,-81818.999186
2298.890044,-8438.347739,5921.647536,-77988.521696
2298.892618,-10362.883188,-1332.370696,-79673.931792
2298.895192,-1480.411884,1924.535449,-76762.768900
2298.897766,-1184.329507,3701.029710,-76149.892501
2298.900340,-8290.306550,-2072.576638,-79980.369991
2298.902914,-9770.718434,10510.924376,-77682.083497
2298.905488,-4885.359217,-6513.812290,-82738.313784
2298.908064,13323.706956,9622.677246,-76609.549800
2298.910639,10807.006753,1628.453072,-78754.617194
2298.913215,10362.883188,-3404.947333,-75843.454302
2298.915790,-4737.318029,10214.842000,-75383.797003
2298.918366,-296.082377,-6809.894666,-85955.914876
2298.920941,4737.318029,5181.441594,-77682.083497
2298.923516,13915.871710,0.000000,-82125.437386
2298.926092,13175.665768,5033.400406,-75230.577904
2298.928667,444.123565,-888.247130,-79061.055394
2298.931243,-6365.771101,3108.864956,-75843.454302
2298.933818,9030.512492,-2960.823768,-82431.875585
2298.936394,2960.823768,3701.029710,-81206.122788
2298.938969,2812.782580,-888.247130,-80133.589091
2298.941544,13323.706956,3108.864956,-76456.330700
2298.944120,10066.800811,5477.523971,-74311.263306
2298.946695,9178.553681,148.041188,-80593.246390
2298.949271,6513.812290,3701.029710,-76456.330700
2298.951846,740.205942,-1332.370696,-83044.751983
2298.954422,3701.029710,6217.729913,-78294.959896
2298.956997,11399.171507,-4589.276840,-81665.780087
2298.959572,7846.182985,4589.276840,-74158.044206
2298.962148,-5773.606348,6661.853478,-77375.645298
2298.964723,-12731.542202,-3404.947333,-80133.589091
2298.967299,-13323.706956,7846.182985,-79520.712692
2298.969874,-3849.070898,-3404.947333,-85343.038477
2298.972450,7698.141797,-1924.535449,-77222.426198
2298.975025,-5181.441594,5625.565159,-75077.358804
2298.977600,-9178.553681,-1036.288319,-77222.426198
2298.980176,-14656.077652,1628.453072,-77682.083497
2298.982751,-3552.988522,6661.853478,-79673.931792
2298.985327,-3701.029710,-3849.070898,-83044.751983
2298.987902,2812.782580,3404.947333,-77835.302597
2298.990478,-1332.370696,3256.906145,-75690.235202
2298.993053,-3849.070898,-2072.576638,-77835.302597
2298.995628,-2072.576638,3997.112087,-76762.768900
2298.998204,-14952.160028,296.082377,-82278.656485
2299.000779,-7402.059420,-296.082377,-82125.437386
2299.003355,-6809.894666,2368.659014,-78448.178995
2299.005930,1776.494261,-2368.659014,-79061.055394
2299.008506,-4589.276840,6513.812290,-75077.358804
2299.011081,-5773.606348,444.123565,-76762.768900
2299.013656,-13915.871710,4145.153275,-81206.122788
2299.016232,5329.482782,-1776.494261,-82278.656485
2299.018807,16580.613101,296.082377,-79214.274493
2299.021383,12435.459826,7846.182985,-77375.645298
2299.023958,2664.741391,-3404.947333,-76149.892501
2299.026534,-6661.853478,2812.782580,-77069.207099
2299.029109,3256.906145,9326.594869,-78601.398095
2299.031685,6217.729913,-6661.853478,-85343.038477
2299.034260,13323.706956,3404.947333,-79061.055394
2299.036835,5773.606348,4589.276840,-74924.139704
2299.039411,4145.153275,296.082377,-78141.740796
2299.041986,1332.370696,4293.194464,-77835.302597
2299.044562,1480.411884,-888.247130,-81818.999186
2299.047137,1776.494261,1480.411884,-79673.931792
2299.049713,6513.812290,3849.070898,-78448.178995
2299.052288,5625.565159,1184.329507,-77375.645298
2299.054864,16728.654289,2812.782580,-77069.207099
2299.057439,7550.100608,2072.576638,-78601.398095
2299.060014,592.164754,1184.329507,-80746.465489
2299.062590,1332.370696,4441.235652,-80286.808190
2299.065165,3701.029710,-5773.606348,-79673.931792
2299.067741,10362.883188,5625.565159,-75230.577904
2299.070316,888.247130,1332.370696,-76456.330700
2299.072892,-7105.977043,-1776.494261,-78448.178995
2299.075467,-15840.407159,12287.418637,-78294.959896
2299.078043,-10214.842000,-10955.047942,-87641.324971
2299.080618,7994.224174,3849.070898,-77528.864398
2299.083193,-7402.059420,3849.070898,-77222.426198
2299.085769,-7550.100608,0.000000,-75690.235202
2299.088344,-7550.100608,7550.100608,-72932.291410
2299.090920,-5477.523971,-148.041188,-82431.875585
2299.093495,-888.247130,740.205942,-83504.409282
2299.096071,-444.123565,296.082377,-82278.656485
2299.098646,-2220.617826,3108.864956,-74004.825107
2299.101222,-2812.782580,0.000000,-75843.454302
2299.103797,-7254.018232,3997.112087,-75077.358804
2299.106372,-11843.295072,-2220.617826,-81052.903688
2299.108948,-8882.471304,5181.441594,-80899.684589
2299.111523,-9474.636058,-1184.329507,-83197.971083
2299.114099,1480.411884,444.123565,-77988.521696
2299.116675,-2220.617826,6069.688724,-73698.386908
2299.119250,-5773.606348,-2812.782580,-76456.330700
2299.121826,-11991.336260,5477.523971,-78294.959896
2299.124401,1776.494261,-3849.070898,-84270.504780
2299.126977,15988.448347,1924.535449,-81818.999186
2299.129553,13767.830521,8290.306550,-79214.274493
2299.132128,3552.988522,-2664.741391,-75690.235202
2299.134704,1332.370696,2812.782580,-74004.825107
2299.137280,-2220.617826,6661.853478,-77222.426198
2299.139855,9326.594869,-6217.729913,-85496.257577
2299.142431,18653.189738,1628.453072,-79827.150892
2299.145007,3997.112087,6513.812290,-76609.549800
2299.147582,-5477.523971,740.205942,-78754.617194
2299.150158,6957.935855,3404.947333,-75843.454302
2299.152733,-2072.576638,-1480.411884,-79827.150892
2299.155309,4737.318029,-592.164754,-82125.437386
2299.157885,9326.594869,888.247130,-78141.740796
2299.160460,8290.306550,1184.329507,-79673.931792
2299.163036,13767.830521,6809.894666,-77375.645298
2299.165612,6069.688724,-296.082377,-77682.083497
2299.168187,3552.988522,2960.823768,-77528.864398
2299.170763,5773.606348,2960.823768,-79980.369991
2299.173339,4441.235652,-6957.935855,-82431.875585
2299.175914,7254.018232,4589.276840,-77375.645298
2299.178490,-740.205942,6513.812290,-74770.920605
2299.181065,-13767.830521,-2960.823768,-78907.836294
2299.183641,-9622.677246,14063.912898,-75996.673402
2299.186217,-12139.377449,-6217.729913,-86722.010374
2299.188792,14063.912898,-1184.329507,-80746.465489
2299.191368,-5329.482782,4293.194464,-75077.358804
2299.193944,-7846.182985,-4441.235652,-76915.987999
2299.196520,-15396.283594,3108.864956,-77222.426198
2299.199096,-2812.782580,2368.659014,-80133.589091
2299.201672,-7254.018232,592.164754,-84423.723880
2299.204249,2812.782580,1480.411884,-82585.094684
2299.206825,-592.164754,3552.988522,-74311.263306
2299.209401,-5033.400406,-4441.235652,-77222.426198
2299.211977,-7105.977043,2812.782580,-72319.415011
2299.214553,-8290.306550,1036.288319,-80133.589091
2299.217130,-13323.706956,2368.659014,-81359.341888
2299.219706,-444.123565,2220.617826,-82891.532884
2299.222282,-6069.688724,3108.864956,-78754.617194
2299.224858,-1332.370696,-1480.411884,-76303.111601
2299.227435,-12731.542202,4589.276840,-72472.634111
2299.230011,-7550.100608,-5625.565159,-80593.246390
2299.232587,9918.759623,4737.318029,-80899.684589
2299.235163,10658.965565,-2220.617826,-85955.914876
2299.237739,11991.336260,4145.153275,-79827.150892
2299.240316,1628.453072,8290.306550,-72932.291410
2299.242892,-10807.006753,-5625.565159,-78601.398095
2299.245468,6809.894666,6957.935855,-73851.606007
2299.248044,8142.265362,-4589.276840,-83044.751983
2299.250621,11695.253884,-2368.659014,-81512.560987
2299.253197,-4293.194464,4885.359217,-79214.274493
2299.255773,3849.070898,7254.018232,-76609.549800
2299.258349,740.205942,-592.164754,-78141.740796
2299.260925,1776.494261,2072.576638,-79061.055394
2299.263502,7846.182985,1036.288319,-79673.931792
2299.266078,10066.800811,-1776.494261,-81972.218286
2299.268654,9918.759623,3849.070898,-77528.864398
2299.271230,11843.295072,2220.617826,-78601.398095
2299.273807,2812.782580,8142.265362,-74924.139704
2299.276383,-1184.329507,592.164754,-81206.122788
2299.278959,2516.700203,-5477.523971,-81512.560987
2299.281535,7846.182985,3256.906145,-78141.740796
2299.284111,-2072.576638,5181.441594,-75690.235202
2299.286688,-10510.924376,-3256.906145,-77528.864398
2299.289264,-11399.171507,13915.871710,-75077.358804
2299.291840,-12879.583391,-4441.235652,-85189.819378
2299.294416,11695.253884,-1480.411884,-82891.532884
2299.296993,-2220.617826,4293.194464,-77682.083497
2299.299534,-11251.130318,-5033.400406,-77682.083497
2299.302075,-8142.265362,10214.842000,-70480.785816
2299.304616,-8142.265362,296.082377,-79827.150892
2299.307157,-4145.153275,-148.041188,-83197.971083
2299.309698,1036.288319,148.041188,-84730.162079
2299.312239,148.041188,4589.276840,-77375.645298
2299.314781,-3108.864956,-296.082377,-79367.493593
2299.317322,-14359.995275,2516.700203,-72319.415011
2299.319863,-11547.212695,1184.329507,-77375.645298
2299.322404,-11251.130318,3108.864956,-77988.521696
2299.324945,-5921.647536,-1480.411884,-83810.847481
2299.327486,-5477.523971,0.000000,-83044.751983
2299.330028,-444.123565,1776.494261,-78448.178995
2299.332569,-12287.418637,8734.430116,-71859.757712
2299.335110,-9178.553681,-4737.318029,-78907.836294
2299.337651,11399.171507,4737.318029,-76762.768900
2299.340192,8882.471304,-2664.741391,-84423.723880
2299.342733,13915.871710,-888.247130,-82278.656485
2299.345274,-4293.194464,10214.842000,-74311.263306
2299.347816,-3997.112087,-7254.018232,-80746.465489
2299.350357,4145.153275,9622.677246,-72319.415011
2299.352898,10658.965565,-2664.741391,-82431.875585
2299.355439,14063.912898,-592.164754,-79367.493593
2299.357980,2368.659014,5329.482782,-81206.122788
2299.360521,2516.700203,3997.112087,-76915.987999
2299.363062,2664.741391,296.082377,-80286.808190
2299.365604,3404.947333,3701.029710,-78141.740796
2299.368145,10214.842000,1776.494261,-79061.055394
2299.370686,5181.441594,-2516.700203,-80133.589091
2299.373227,12583.501014,5033.400406,-77375.645298
2299.375768,6661.853478,444.123565,-79520.712692
2299.378309,3404.947333,3404.947333,-76456.330700
2299.380851,3108.864956,6365.771101,-78448.178995
2299.383392,11251.130318,-1628.453072,-81818.999186
2299.385933,12435.459826,1184.329507,-79520.712692
2299.388474,-5033.400406,1628.453072,-77682.083497
2299.391015,-12139.377449,-2664.741391,-75690.235202
2299.393556,-14508.036463,13175.665768,-73391.948708
2299.396097,-8882.471304,-4737.318029,-84423.723880
2299.398639,10807.006753,-888.247130,-80899.684589
2299.401187,-4737.318029,7698.141797,-79827.150892
2299.403735,-4737.318029,-3404.947333,-78601.398095
2299.406283,-11547.212695,2368.659014,-74464.482406
2299.408831,-6661.853478,-148.041188,-77682.083497
2299.411379,-148.041188,2220.617826,-80746.465489
2299.413927,2072.576638,1924.535449,-81972.218286
2299.416475,-3404.947333,2664.741391,-79214.274493
2299.419023,-7698.141797,-1628.453072,-80746.465489
2299.421571,-12287.418637,-444.123565,-74770.920605
2299.424119,-14211.954086,2960.823768,-76762.768900
2299.426668,-12435.459826,-1776.494261,-78141.740796
2299.429216,1480.411884,-3701.029710,-81512.560987
2299.431764,-7105.977043,7402.059420,-81206.122788
2299.434312,-5181.441594,-3256.906145,-81818.999186
2299.436860,-10807.006753,4589.276840,-75537.016103
2299.439408,0.000000,444.123565,-77375.645298
2299.441956,11991.336260,-3108.864956,-78754.617194
2299.444504,10362.883188,2072.576638,-80746.465489
2299.447052,7846.182985,-1036.288319,-80286.808190
2299.449600,-3404.947333,4145.153275,-77069.207099
2299.452148,-4293.194464,7550.100608,-78601.398095
2299.454697,6513.812290,-148.041188,-79520.712692
2299.457245,9622.677246,6365.771101,-76456.330700
2299.459793,13175.665768,-2220.617826,-79980.369991
2299.462341,1628.453072,-4145.153275,-80593.246390
2299.464889,1332.370696,5181.441594,-75230.577904
2299.467437,-1184.329507,296.082377,-81359.341888
2299.469985,6957.935855,7994.224174,-77222.426198
2299.472533,9178.553681,1184.329507,-80133.589091
2299.475081,7550.100608,-444.123565,-80286.808190
2299.477629,14508.036463,296.082377,-77375.645298
2299.480177,-1480.411884,592.164754,-77528.864398
2299.482725,2220.617826,3108.864956,-77988.521696
2299.485274,3849.070898,888.247130,-79214.274493
2299.487822,8882.471304,6069.688724,-81052.903688
2299.490370,6661.853478,-1332.370696,-81052.903688
2299.492918,-13175.665768,-888.247130,-77375.645298
2299.495466,-10807.006753,8142.265362,-74770.920605
2299.498014,-11103.089130,-6957.935855,-78601.398095
2299.500562,4589.276840,6661.853478,-79061.055394
2299.503081,-3404.947333,-296.082377,-81972.218286
2299.505601,2220.617826,5329.482782,-80286.808190
2299.508120,-4885.359217,4885.359217,-75537.016103
2299.510639,-12879.583391,-1184.329507,-79827.150892
2299.513159,-3256.906145,2960.823768,-75996.673402
2299.515678,-2072.576638,-148.041188,-80746.465489
2299.518197,-2072.576638,2812.782580,-77988.521696
2299.520717,-7402.059420,1776.494261,-79827.150892
2299.523236,-8586.388927,-2072.576638,-80899.684589
2299.525755,-7994.224174,6365.771101,-77528.864398
2299.528275,-14063.912898,0.000000,-78907.836294
2299.530794,-4441.235652,-1628.453072,-77222.426198
2299.533313,-3404.947333,3108.864956,-79214.274493
2299.535833,-5921.647536,-4441.235652,-80286.808190
2299.538352,-8586.388927,5181.441594,-77375.645298
2299.540871,-10955.047942,2812.782580,-80899.684589
2299.543391,13323.706956,1776.494261,-80746.465489
2299.545910,9918.759623,2368.659014,-79827.150892
2299.548429,8586.388927,-5773.606348,-79827.150892
2299.550949,-3256.906145,8734.430116,-72932.291410
2299.553468,-2812.782580,-7402.059420,-82278.656485
2299.555987,5773.606348,6661.853478,-76456.330700
2299.558507,12287.418637,1924.535449,-82431.875585
2299.561026,5921.647536,1628.453072,-79673.931792
2299.563545,2516.700203,5033.400406,-79367.493593
2299.566065,-740.205942,1036.288319,-77222.426198
2299.568584,-592.164754,-4737.318029,-78601.398095
2299.571103,6513.812290,5625.565159,-77069.207099
2299.573623,1924.535449,148.041188,-80899.684589
2299.576142,16136.489536,2368.659014,-81052.903688
2299.578661,11251.130318,2812.782580,-78294.959896
2299.581181,-740.205942,1628.453072,-80133.589091
2299.583700,2516.700203,3256.906145,-75537.016103
2299.586219,2072.576638,148.041188,-76609.549800
2299.588739,5773.606348,5921.647536,-78601.398095
2299.591258,14804.118840,-4885.359217,-81206.122788
2299.593777,-11991.336260,3404.947333,-77682.083497
2299.596297,-13619.789333,11695.253884,-77835.302597
2299.598816,-12879.583391,-7254.018232,-79827.150892
2299.601336,6365.771101,7254.018232,-76303.111601
2299.603867,-3256.906145,-1924.535449,-78601.398095
2299.606398,-3701.029710,2220.617826,-78907.836294
2299.608929,-4589.276840,6365.771101,-75230.577904
2299.611460,-10807.006753,-2368.659014,-81972.218286
2299.613991,3701.029710,5921.647536,-77682.083497
2299.616522,-1184.329507,-2220.617826,-81359.341888
2299.619053,2072.576638,1332.370696,-78141.740796
2299.621584,-3997.112087,888.247130,-77682.083497
2299.624115,-10807.006753,-2960.823768,-79061.055394
2299.626646,-9474.636058,3997.112087,-77069.207099
2299.629177,-13767.830521,4589.276840,-81818.999186
2299.631708,3997.112087,-3552.988522,-80899.684589
2299.634239,-7698.141797,5773.606348,-77988.521696
2299.636770,-7254.018232,-5033.400406,-79980.369991
2299.639301,-6661.853478,5921.647536,-74004.825107
2299.641832,-3404.947333,-2368.659014,-79214.274493
2299.644363,9474.636058,5181.441594,-77835.302597
2299.646894,7550.100608,8882.471304,-81818.999186
2299.649425,7402.059420,-2516.700203,-80133.589091
2299.651956,-5181.441594,1628.453072,-76456.330700
2299.654487,888.247130,6365.771101,-75537.016103
2299.657018,4885.359217,-5625.565159,-79980.369991
2299.659549,13767.830521,5329.482782,-77835.302597
2299.662080,7550.100608,2072.576638,-79520.712692
2299.664611,-5773.606348,1036.288319,-82738.313784
2299.667142,8734.430116,3997.112087,-77069.207099
2299.669673,-1036.288319,148.041188,-79367.493593
2299.672204,3552.988522,2220.617826,-76609.549800
2299.674735,17764.942608,-1332.370696,-79367.493593
2299.677266,9030.512492,1332.370696,-77835.302597
2299.679797,5033.400406,4293.194464,-80286.808190
2299.682328,2960.823768,1776.494261,-80593.246390
2299.684859,6217.729913,7846.182985,-76609.549800
2299.687390,2812.782580,-3404.947333,-80593.246390
2299.689921,8882.471304,4293.194464,-74924.139704
2299.692452,-740.205942,148.041188,-77835.302597
2299.694983,-11103.089130,-4441.235652,-81818.999186
2299.697514,-11251.130318,12583.501014,-75077.358804
2299.700045,-11547.212695,3108.864956,-81206.122788
2299.702576,4293.194464,-2960.823768,-80746.465489
2299.705076,3849.070898,-148.041188,-78141.740796
2299.707583,-10955.047942,0.000000,-76149.892501
2299.710090,-13323.706956,-1036.288319,-78141.740796
2299.712597,2072.576638,2368.659014,-76609.549800
2299.715104,-1036.288319,4737.318029,-81818.999186
2299.717611,-1628.453072,2516.700203,-81206.122788
2299.720118,-1628.453072,6069.688724,-76762.768900
2299.722625,-12139.377449,-4293.194464,-79061.055394
2299.725132,-10066.800811,1480.411884,-76303.111601
2299.727639,-12879.583391,2368.659014,-79980.369991
2299.730146,148.041188,-888.247130,-78907.836294
2299.732653,-5625.565159,6957.935855,-79520.712692
2299.735160,-7698.141797,-1776.494261,-81206.122788
2299.737667,-7994.224174,6365.771101,-76915.987999
2299.740174,-9178.553681,-1480.411884,-79061.055394
2299.742681,12583.501014,592.164754,-75843.454302
2299.745188,9178.553681,296.082377,-80286.808190
2299.747695,11103.089130,-2516.700203,-80593.246390
2299.750202,-5625.565159,7846.182985,-77222.426198
2299.752709,-740.205942,3256.906145,-80593.246390
2299.755216,4441.235652,2516.700203,-77835.302597
2299.757724,12435.459826,888.247130,-79061.055394
2299.760231,10214.842000,-2516.700203,-78141.740796
2299.762738,740.205942,1924.535449,-79673.931792
2299.765245,-444.123565,1924.535449,-77988.521696
2299.767752,444.123565,-1184.329507,-81052.903688
2299.770259,3256.906145,8142.265362,-78141.740796
2299.772766,15544.324782,888.247130,-80286.808190
2299.775273,9770.718434,0.000000,-78141.740796
2299.777780,5773.606348,4885.359217,-76149.892501
2299.780287,-1480.411884,-3256.906145,-80593.246390
2299.782794,6957.935855,8142.265362,-75996.673402
2299.785301,3849.070898,-1776.494261,-82431.875585
2299.787808,9770.718434,3849.070898,-79061.055394
2299.790315,2368.659014,5773.606348,-78141.740796
2299.792822,-14656.077652,-4589.276840,-78754.617194
2299.795329,-11843.295072,10214.842000,-73851.606007
2299.797836,-13767.830521,-3108.864956,-81206.122788
2299.800343,10658.965565,740.205942,-78601.398095
2299.802850,-592.164754,4145.153275,-79061.055394
2299.805372,-7402.059420,2220.617826,-79827.150892
2299.807894,-15988.448347,1628.453072,-77222.426198
2299.810416,148.041188,1036.288319,-79214.274493
2299.812938,-740.205942,1480.411884,-78601.398095
2299.815460,740.205942,-2368.659014,-80286.808190
2299.817982,2072.576638,7846.182985,-75996.673402
2299.820503,-16728.654289,-4145.153275,-81512.560987
2299.823025,-12287.418637,4293.194464,-78907.836294
2299.825547,-9178.553681,2812.782580,-78294.959896
2299.828069,-7254.018232,-1628.453072,-79827.150892
2299.830591,-6809.894666,5033.400406,-77528.864398
2299.833113,-6365.771101,-5033.400406,-79214.274493
2299.835635,-7402.059420,7994.224174,-75383.797003
2299.838157,-6513.812290,-5921.647536,-82431.875585
2299.840678,13175.665768,9622.677246,-75077.358804
2299.843200,10807.006753,-2812.782580,-84117.285680
2299.845722,11695.253884,-4293.194464,-78294.959896
2299.848244,-4885.359217,9326.594869,-74311.263306
2299.850766,-3997.112087,-6809.894666,-81972.218286
2299.853288,4441.235652,3997.112087,-76303.111601
2299.855810,9770.718434,2960.823768,-78907.836294
2299.858332,9030.512492,3256.906145,-78601.398095
2299.860853,-4293.194464,-592.164754,-81512.560987
2299.863375,740.205942,1332.370696,-75996.673402
2299.865897,-1036.288319,-3256.906145,-79214.274493
2299.868419,6957.935855,4293.194464,-78448.178995
2299.870941,13767.830521,6513.812290,-77528.864398
2299.873463,12731.542202,-5033.400406,-80746.465489
2299.875985,8290.306550,7105.977043,-77069.207099
2299.878507,-5625.565159,-1776.494261,-81206.122788
2299.881028,1480.411884,3701.029710,-78141.740796
2299.883550,10510.924376,1628.453072,-78448.178995
2299.886072,11251.130318,-444.123565,-77682.083497
2299.888594,-2516.700203,6809.894666,-77835.302597
2299.891116,-17024.736666,-2812.782580,-80440.027290
2299.893638,-11103.089130,5773.606348,-77375.645298
2299.896160,-7105.977043,3256.906145,-81206.122788
2299.898681,4293.194464,-4145.153275,-81206.122788
2299.901203,1036.288319,5921.647536,-76609.549800
2299.903725,-13767.830521,-296.082377,-78294.959896
2299.906260,-12879.583391,3256.906145,-77375.645298
2299.908794,3997.112087,4737.318029,-79061.055394
2299.911329,0.000000,296.082377,-81206.122788
2299.913863,-1332.370696,1776.494261,-79827.150892
2299.916398,-3701.029710,2368.659014,-77222.426198
2299.918932,-16728.654289,-3701.029710,-80286.808190
2299.921467,-9918.759623,6513.812290,-76915.987999
2299.924001,-11547.212695,444.123565,-80286.808190
2299.926536,2072.576638,1184.329507,-80286.808190
2299.929070,-3849.070898,5477.523971,-78294.959896
2299.931605,-9622.677246,-5773.606348,-81665.780087
2299.934139,-10066.800811,1628.453072,-78294.959896
2299.936674,5625.565159,3701.029710,-77682.083497
2299.939208,12879.583391,-740.205942,-79673.931792
2299.941743,14804.118840,5181.441594,-80440.027290
2299.944277,296.082377,2220.617826,-77835.302597
2299.946812,-6365.771101,-4737.318029,-80593.246390
2299.949346,6957.935855,9622.677246,-74770.920605
2299.951881,888.247130,-6809.894666,-83197.971083
2299.954415,17024.736666,2960.823768,-78141.740796
2299.956950,5625.565159,1776.494261,-76609.549800
2299.959484,-4885.359217,-444.123565,-82125.437386
2299.962019,-1332.370696,2368.659014,-78907.836294
2299.964553,3108.864956,-2072.576638,-79673.931792
2299.967088,21169.889941,3108.864956,-78448.178995
2299.969622,11399.171507,740.205942,-79520.712692
2299.972157,6957.935855,-444.123565,-78141.740796
2299.974691,4737.318029,1480.411884,-78141.740796
2299.977226,-444.123565,4737.318029,-78754.617194
2299.979760,6069.688724,-1924.535449,-79673.931792
2299.982295,10807.006753,8586.388927,-78448.178995
2299.984829,11695.253884,-2072.576638,-81359.341888
2299.987364,-14063.912898,-5033.400406,-80899.684589
2299.989898,-10807.006753,10955.047942,-74004.825107
2299.992433,-13915.871710,-5329.482782,-82278.656485
2299.994967,4737.318029,4737.318029,-79061.055394
2299.997502,0.000000,3701.029710,-77988.521696
2300.000036,-3552.988522,0.000000,-80593.246390
2300.002571,-12879.583391,5329.482782,-74924.139704
2300.005105,-13027.624579,-1332.370696,-80440.027290
2300.007617,592.164754,4441.235652,-76762.768900
2300.010129,-2072.576638,0.000000,-81665.780087
2300.012641,-148.041188,3849.070898,-76762.768900
2300.015152,-8290.306550,-1184.329507,-80286.808190
2300.017664,-17024.736666,2960.823768,-77069.207099
2300.020176,-13767.830521,1184.329507,-79367.493593
2300.022687,3404.947333,1036.288319,-78448.178995
2300.025199,-6513.812290,3997.112087,-78601.398095
2300.027711,-5773.606348,-3701.029710,-80899.684589
2300.030223,-6513.812290,7402.059420,-75077.358804
2300.032734,-5921.647536,-4293.194464,-82125.437386
2300.035246,11251.130318,4885.359217,-76456.330700
2300.037758,13323.706956,2220.617826,-80746.465489
2300.040269,5033.400406,-2072.576638,-78601.398095
2300.042781,-2664.741391,2220.617826,-77069.207099
2300.045293,-3108.864956,1480.411884,-79061.055394
2300.047805,3256.906145,-296.082377,-80286.808190
2300.050316,14656.077652,-1036.288319,-79980.369991
2300.052828,2960.823768,6069.688724,-77988.521696
2300.055340,-1776.494261,-1628.453072,-80899.684589
2300.057852,-1776.494261,2516.700203,-75690.235202
2300.060363,1924.535449,-592.164754,-80440.027290
2300.062875,6217.729913,1184.329507,-78601.398095
2300.065387,7698.141797,592.164754,-79827.150892
2300.067898,11695.253884,2220.617826,-78601.398095
2300.070410,3552.988522,0.000000,-77988.521696
2300.072922,-3997.112087,4441.235652,-79827.150892
2300.075434,5181.441594,-1036.288319,-77375.645298
2300.077945,12287.418637,5921.647536,-78294.959896
2300.080457,12731.542202,-1332.370696,-80593.246390
2300.082969,-15100.201217,444.123565,-77528.864398
2300.085480,-15692.365970,4145.153275,-79214.274493
2300.087992,-9770.718434,-2516.700203,-78601.398095
2300.090504,5477.523971,4589.276840,-78141.740796
2300.093016,2368.659014,1036.288319,-77988.521696
2300.095527,-7550.100608,3849.070898,-77988.521696
2300.098039,-10066.800811,1184.329507,-76915.987999
2300.100551,-10510.924376,-2368.659014,-79980.369991
2300.103062,740.205942,4885.359217,-78601.398095
2300.105574,-1480.411884,3552.988522,-79673.931792
2300.108101,-3997.112087,888.247130,-77682.083497
2300.110628,-11251.130318,1184.329507,-76915.987999
2300.113155,-20281.642811,0.000000,-78907.836294
2300.115682,-4737.318029,2220.617826,-78754.617194
2300.118208,3701.029710,1184.329507,-77375.645298
2300.120735,-5033.400406,2960.823768,-80133.589091
2300.123262,-4737.318029,-148.041188,-78754.617194
2300.125789,-13619.789333,4589.276840,-75537.016103
2300.128316,2812.782580,592.164754,-79673.931792
2300.130843,14656.077652,-1332.370696,-78907.836294
2300.133369,14804.118840,3997.112087,-81052.903688
2300.135896,5625.565159,1628.453072,-77682.083497
2300.138423,-3552.988522,-2960.823768,-80133.589091
2300.140950,444.123565,11251.130318,-74311.263306
2300.143477,592.164754,-6957.935855,-83044.751983
2300.146004,18357.107362,2812.782580,-74924.139704
2300.148531,1628.453072,5033.400406,-79673.931792
2300.151057,-888.247130,-740.205942,-80899.684589
2300.153584,1036.288319,2368.659014,-76303.111601
2300.156111,2812.782580,1332.370696,-81359.341888
2300.158638,12287.418637,4441.235652,-76915.987999
2300.161165,16580.613101,-148.041188,-79367.493593
2300.163692,7550.100608,3404.947333,-75996.673402
2300.166219,-4441.235652,-888.247130,-80746.465489
2300.168745,-296.082377,5625.565159,-77375.645298
2300.171272,10807.006753,-592.164754,-81359.341888
2300.173799,15100.201217,444.123565,-78141.740796
2300.176326,-3256.906145,3108.864956,-77835.302597
2300.178853,-16580.613101,-2960.823768,-78448.178995
2300.181380,-15396.283594,6513.812290,-75843.454302
2300.183906,-7550.100608,148.041188,-82585.094684
2300.186433,12287.418637,-1184.329507,-80286.808190
2300.188960,592.164754,7254.018232,-77222.426198
2300.191487,-9474.636058,740.205942,-78601.398095
2300.194014,-15248.242405,2960.823768,-76762.768900
2300.196541,-296.082377,740.205942,-78294.959896
2300.199068,-1480.411884,1184.329507,-79673.931792
2300.201594,3552.988522,3552.988522,-80899.684589
2300.204121,-5625.565159,1776.494261,-77835.302597
2300.206648,-13619.789333,-740.205942,-79367.493593
2300.209187,-13323.706956,3256.906145,-77375.645298
2300.211727,-5181.441594,-296.082377,-78754.617194
2300.214266,-3256.906145,4293.194464,-77988.521696
2300.216805,740.205942,-296.082377,-81052.903688
2300.219345,-15100.201217,3997.112087,-77988.521696
2300.221884,-8438.347739,1184.329507,-79214.274493
2300.224423,9178.553681,4441.235652,-76915.987999
2300.226963,14359.995275,1924.535449,-80593.246390
2300.229502,14508.036463,-3997.112087,-79061.055394
2300.232041,444.123565,8290.306550,-75690.235202
2300.234581,-3997.112087,-4589.276840,-82125.437386
2300.237120,3256.906145,2960.823768,-77375.645298
2300.239659,7550.100608,2960.823768,-79980.369991
2300.242199,12139.377449,1332.370696,-79980.369991
2300.244738,5033.400406,148.041188,-78601.398095
2300.247277,-888.247130,4737.318029,-76915.987999
2300.249817,-7105.977043,-5625.565159,-82278.656485
2300.252356,8882.471304,6217.729913,-77988.521696
2300.254895,18505.148550,3701.029710,-77682.083497
2300.257434,10066.800811,0.000000,-81206.122788
2300.259974,4145.153275,3552.988522,-77222.426198
2300.262513,-3849.070898,1036.288319,-78907.836294
2300.265052,3108.864956,-2516.700203,-77375.645298
2300.267592,6809.894666,5477.523971,-79061.055394
2300.270131,10214.842000,-2220.617826,-80746.465489
2300.272670,-7698.141797,1480.411884,-76456.330700
2300.275210,-17172.777854,13323.706956,-75383.797003
2300.277749,-17172.777854,-6809.894666,-82431.875585
2300.280288,9178.553681,-296.082377,-77682.083497
2300.282828,1332.370696,7698.141797,-76609.549800
2300.285367,1184.329507,-5625.565159,-82125.437386
2300.287906,-12287.418637,6365.771101,-73085.510509
2300.290446,-1776.494261,-888.247130,-82738.313784
2300.292985,-1776.494261,5625.565159,-78141.740796
2300.295524,5477.523971,0.000000,-82278.656485
2300.298064,-7550.100608,7698.141797,-73851.606007
2300.300603,-9326.594869,-444.123565,-78601.398095
2300.303142,-12435.459826,-592.164754,-76915.987999
2300.305682,-8290.306550,-148.041188,-79827.150892
2300.308221,-3552.988522,7402.059420,-78907.836294
2300.310770,592.164754,444.123565,-81818.999186
2300.313320,-7105.977043,4441.235652,-77682.083497
2300.315870,-12435.459826,148.041188,-77528.864398
2300.318419,3849.070898,888.247130,-77682.083497
2300.320969,10214.842000,-3552.988522,-78448.178995
2300.323518,15396.283594,3552.988522,-79980.369991
2300.326068,5477.523971,5181.441594,-79367.493593
2300.328617,0.000000,-6513.812290,-82738.313784
2300.331167,2368.659014,6069.688724,-75077.358804
2300.333717,1628.453072,-148.041188,-80593.246390
2300.336266,11399.171507,-444.123565,-76762.768900
2300.338816,5477.523971,1480.411884,-78907.836294
2300.341365,740.205942,1332.370696,-79367.493593
2300.343915,1924.535449,-592.164754,-80440.027290
2300.346464,4145.153275,3849.070898,-79214.274493
2300.349014,13619.789333,4441.235652,-77988.521696
2300.351563,11695.253884,1036.288319,-79367.493593
2300.354113,3256.906145,592.164754,-76915.987999
2300.356663,-1036.288319,296.082377,-78141.740796
2300.359212,-1184.329507,-1628.453072,-78141.740796
2300.361762,8290.306550,5181.441594,-81665.780087
2300.364311,10807.006753,2664.741391,-78601.398095
2300.366861,-8882.471304,-1480.411884,-77988.521696
2300.369410,-17172.777854,7994.224174,-76762.768900
2300.371960,-13619.789333,-8290.306550,-79980.369991
2300.374510,-1184.329507,3701.029710,-77682.083497
2300.377059,-148.041188,-296.082377,-80440.027290
2300.379609,-740.205942,3849.070898,-79673.931792
2300.382158,-7698.141797,5477.523971,-78141.740796
2300.384708,-13323.706956,-1480.411884,-80286.808190
2300.387257,-2220.617826,888.247130,-79367.493593
2300.389807,2664.741391,2220.617826,-79061.055394
2300.392356,-444.123565,2664.741391,-77528.864398
2300.394906,-11251.130318,2072.576638,-79214.274493
2300.397456,-15692.365970,296.082377,-79673.931792
2300.400005,-9178.553681,2368.659014,-79214.274493
2300.402555,-1776.494261,3849.070898,-80440.027290
2300.405104,-2072.576638,-444.123565,-79673.931792
2300.407654,-8438.347739,4293.194464,-76149.892501
2300.410203,-9474.636058,-2072.576638,-78294.959896
2300.412761,9474.636058,3108.864956,-77375.645298
2300.415318,9770.718434,1184.329507,-81665.780087
2300.417875,14359.995275,2516.700203,-79673.931792
2300.420432,592.164754,4737.318029,-78754.617194
2300.422989,740.205942,-7254.018232,-80746.465489
2300.425546,-148.041188,7550.100608,-74004.825107
2300.428103,-1480.411884,-4885.359217,-81972.218286
2300.430660,17468.860231,4293.194464,-76303.111601
2300.433218,6217.729913,1480.411884,-81359.341888
2300.435775,-1924.535449,888.247130,-79214.274493
2300.438332,-1036.288319,-2220.617826,-80593.246390
2300.440889,9622.677246,3404.947333,-76456.330700
2300.443446,18357.107362,1332.370696,-77835.302597
2300.446003,10807.006753,1332.370696,-78448.178995
2300.448560,1924.535449,2368.659014,-79061.055394
2300.451118,4885.359217,3849.070898,-79214.274493
2300.453675,444.123565,-3552.988522,-81206.122788
2300.456232,10658.965565,3108.864956,-79673.931792
2300.458789,-148.041188,4589.276840,-76915.987999
2300.461346,-7846.182985,-4885.359217,-78601.398095
2300.463903,-16580.613101,6365.771101,-74770.920605
2300.466460,-12287.418637,-1036.288319,-83044.751983
2300.469017,5477.523971,-296.082377,-80133.589091
2300.471575,5921.647536,2516.700203,-80133.589091
2300.474132,-7105.977043,3256.906145,-77069.207099
2300.476689,-12879.583391,2220.617826,-77375.645298
2300.479246,-4145.153275,-2220.617826,-78294.959896
2300.481803,-1924.535449,1776.494261,-78448.178995
2300.484360,-1628.453072,444.123565,-80746.465489
2300.486917,-148.041188,296.082377,-77835.302597
2300.489474,-15840.407159,1184.329507,-79367.493593
2300.492032,-13619.789333,2516.700203,-79673.931792
2300.494589,-2220.617826,-1924.535449,-79061.055394
2300.497146,-4145.153275,5181.441594,-76915.987999
2300.499703,1184.329507,-4589.276840,-80286.808190
2300.502260,-10362.883188,8290.306550,-75996.673402
2300.504817,-3404.947333,1480.411884,-80440.027290
2300.507374,11991.336260,-1332.370696,-79520.712692
2300.509932,10214.842000,7402.059420,-79520.712692
2300.512489,11547.212695,-4589.276840,-80286.808190
2300.515020,5773.606348,-2368.659014,-77375.645298
2300.517552,-1036.288319,9918.759623,-75690.235202
2300.520083,-1480.411884,-13619.789333,-86109.133975
2300.522615,14952.160028,9474.636058,-74770.920605
2300.525147,-888.247130,1924.535449,-82738.313784
2300.527678,2220.617826,-1036.288319,-80286.808190
2300.530210,3849.070898,5329.482782,-74464.482406
2300.532741,-1332.370696,-4885.359217,-80899.684589
2300.535273,16876.695478,3552.988522,-76762.768900
2300.537805,9770.718434,3256.906145,-78448.178995
2300.540336,7402.059420,-740.205942,-81512.560987
2300.542868,3997.112087,6661.853478,-78907.836294
2300.545399,148.041188,-5033.400406,-80133.589091
2300.547931,5033.400406,3849.070898,-77528.864398
2300.550462,740.205942,5329.482782,-75537.016103
2300.552994,-9178.553681,-5773.606348,-80286.808190
2300.555526,-10510.924376,12583.501014,-74617.701505
2300.558057,-17320.819043,-7994.224174,-84730.162079
2300.560589,1332.370696,4145.153275,-79520.712692
2300.563120,-2516.700203,3552.988522,-77988.521696
2300.565652,-2220.617826,-444.123565,-79827.150892
2300.568183,-6365.771101,1776.494261,-73698.386908
2300.570715,-4737.318029,2220.617826,-77069.207099
2300.573247,-1776.494261,-888.247130,-81512.560987
2300.575778,-2960.823768,4293.194464,-81206.122788
2300.578310,-3997.112087,6661.853478,-77988.521696
2300.580841,-9918.759623,-3701.029710,-80593.246390
2300.583373,-12287.418637,1924.535449,-74924.139704
2300.585905,-7550.100608,-592.164754,-77682.083497
2300.588436,-7254.018232,1776.494261,-79061.055394
2300.590968,-2220.617826,-592.164754,-79980.369991
2300.593499,-3552.988522,7105.977043,-79214.274493
2300.596042,296.082377,2516.700203,-79061.055394
2300.598585,10658.965565,-1776.494261,-78601.398095
2300.601128,12879.583391,2368.659014,-78907.836294
2300.603671,8734.430116,-3256.906145,-77682.083497
2300.606214,-5477.523971,3849.070898,-76456.330700
2300.608757,4441.235652,5625.565159,-79214.274493
2300.611300,3849.070898,-148.041188,-81206.122788
2300.613844,8734.430116,5477.523971,-79061.055394
2300.616387,-888.247130,1924.535449,-78141.740796
2300.618930,2368.659014,-444.123565,-78907.836294
2300.621473,3256.906145,3997.112087,-74464.482406
2300.624016,-1480.411884,-1332.370696,-80133.589091
2300.626559,16728.654289,3849.070898,-79673.931792
2300.629102,11251.130318,3256.906145,-79367.493593
2300.631645,4293.194464,1776.494261,-80440.027290
2300.634188,6957.935855,4589.276840,-77222.426198
2300.636731,-6365.771101,-6513.812290,-78448.178995
2300.639274,6957.935855,4737.318029,-77988.521696
2300.641817,3701.029710,-3256.906145,-80440.027290
2300.644360,-11103.089130,1184.329507,-78601.398095
2300.646903,-9770.718434,12139.377449,-75843.454302
2300.649446,-15100.201217,-5477.523971,-82125.437386
2300.651989,1036.288319,1776.494261,-79367.493593
2300.654532,-3404.947333,148.041188,-77222.426198
2300.657075,-4293.194464,592.164754,-78294.959896
2300.659618,-8438.347739,3552.988522,-76149.892501
2300.662161,-444.123565,148.041188,-79061.055394
2300.664704,-10362.883188,3997.112087,-79827.150892
2300.667247,3997.112087,2516.700203,-81972.218286
2300.669790,-5181.441594,5181.441594,-75537.016103
2300.672333,-11103.089130,-2220.617826,-81052.903688
2300.674876,-13175.665768,296.082377,-75690.235202
2300.677419,-5477.523971,888.247130,-77835.302597
2300.679962,-7698.141797,4589.276840,-80593.246390
2300.682505,888.247130,592.164754,-81206.122788
2300.685048,-13323.706956,8734.430116,-78141.740796
2300.687591,-148.041188,-2812.782580,-80746.465489
2300.690134,13767.830521,-2072.576638,-75996.673402
2300.692677,8142.265362,3849.070898,-78141.740796
2300.695220,9770.718434,-3997.112087,-78141.740796
2300.697723,-740.205942,5181.441594,-78601.398095
2300.700244,888.247130,9918.759623,-77375.645298
2300.702765,5477.523971,-3849.070898,-83351.190182
